// General information: 
//  MT Manager version: 2019.1.1 
//  XDA version: 2019.1.1 build 3010 rev 85319 built on 2019-03-01
// Device information: 
//  DeviceId: 00B48609
//  ProductCode: MTW2-3A7G6
//  Firmware Version: 4.6.0
//  Hardware Version: 2.0.0
// Device settings: 
//  Filter Profile: human(46.1)
//  Option Flags: Orientation Smoother Disabled, AHS Disabled, ICC Disabled
// Coordinate system: ENU
PacketCounter	SampleTimeFine	Acc_X	Acc_Y	Acc_Z	Gyr_X	Gyr_Y	Gyr_Z	Quat_q0	Quat_q1	Quat_q2	Quat_q3
10291		9.361006	1.323356	-2.756384	0.032915	0.079910	0.049193	-0.527211	0.258998	0.762029	0.272543
10292		9.385061	1.327162	-2.784303	0.029399	0.088449	0.057688	-0.527647	0.259067	0.761762	0.272382
10293		9.343589	1.294616	-2.759065	0.025334	0.102064	0.061572	-0.528142	0.259141	0.761441	0.272250
10294		9.347608	1.274522	-2.770015	0.024122	0.105562	0.064750	-0.528645	0.259230	0.761111	0.272111
10295		9.353968	1.274981	-2.706397	0.027344	0.105359	0.058291	-0.529152	0.259279	0.760786	0.271986
10296		9.388105	1.244925	-2.651180	0.020289	0.105667	0.063820	-0.529650	0.259374	0.760452	0.271863
10297		9.409387	1.281394	-2.669469	0.024870	0.115959	0.066574	-0.530204	0.259457	0.760082	0.271738
10298		9.445126	1.210178	-2.673281	0.033617	0.134389	0.063605	-0.530827	0.259479	0.759688	0.271600
10299		9.486970	1.125934	-2.607606	0.037282	0.155561	0.059972	-0.531541	0.259451	0.759237	0.271494
10300		9.487297	0.982968	-2.530980	0.038364	0.161800	0.043615	-0.532250	0.259349	0.758799	0.271426
10301		9.448143	0.912271	-2.559860	0.049487	0.179369	0.019212	-0.533018	0.259100	0.758350	0.271413
10302		9.329972	0.950093	-2.454516	0.056523	0.200920	-0.008940	-0.533833	0.258700	0.757893	0.271468
10303		9.167072	1.134780	-2.388704	0.050024	0.185346	-0.025447	-0.534573	0.258265	0.757481	0.271577
10304		9.163580	1.387308	-2.396654	0.045492	0.127593	-0.021657	-0.535076	0.257938	0.757222	0.271619
10305		9.171555	1.511115	-2.469368	0.032807	0.098898	-0.009258	-0.535480	0.257726	0.756998	0.271647
10306		9.194207	1.499552	-2.570999	0.009979	0.077400	0.002652	-0.535777	0.257651	0.756797	0.271694
10307		9.286988	1.502652	-2.711102	0.010623	0.071254	0.009142	-0.536069	0.257599	0.756598	0.271720
10308		9.463215	1.426289	-2.854771	0.016052	0.070700	0.018337	-0.536367	0.257575	0.756405	0.271693
10309		9.531483	1.438207	-2.974124	0.027823	0.060342	0.023189	-0.536655	0.257549	0.756241	0.271605
10310		9.465929	1.413203	-2.897168	0.032493	0.071387	0.028801	-0.536990	0.257519	0.756055	0.271488
10311		9.280749	1.346073	-2.854784	0.031511	0.068380	0.030928	-0.537327	0.257498	0.755864	0.271374
10312		9.265275	1.333441	-2.725791	0.024519	0.071200	0.040153	-0.537665	0.257533	0.755654	0.271255
10313		9.326685	1.282034	-2.627144	0.012727	0.062269	0.040946	-0.537964	0.257607	0.755445	0.271175
10314		9.329391	1.135638	-2.437197	0.000532	0.060946	0.040900	-0.538234	0.257723	0.755229	0.271132
10315		9.419725	1.061084	-2.292162	-0.011732	0.063247	0.042777	-0.538506	0.257876	0.754979	0.271142
10316		9.443530	1.101210	-2.226886	-0.011423	0.053123	0.039831	-0.538729	0.258030	0.754769	0.271137
10317		9.527356	1.032870	-2.204243	-0.013118	0.053747	0.031682	-0.538949	0.258156	0.754556	0.271172
10318		9.556679	0.999484	-2.206945	-0.015444	0.047334	0.028397	-0.539130	0.258285	0.754370	0.271207
10319		9.510273	0.977945	-2.220531	-0.009531	0.046933	0.024204	-0.539318	0.258383	0.754190	0.271242
10320		9.472698	1.073467	-2.283254	-0.009431	0.041505	0.021314	-0.539475	0.258476	0.754036	0.271267
10321		9.462960	1.138446	-2.354104	-0.021400	0.035463	0.021167	-0.539602	0.258607	0.753875	0.271339
10322		9.389936	1.121460	-2.401749	-0.028673	0.032498	0.019964	-0.539699	0.258759	0.753721	0.271428
10323		9.390871	1.120412	-2.398579	-0.031028	0.027888	0.017633	-0.539783	0.258911	0.753570	0.271537
10324		9.363219	1.129828	-2.462522	-0.038264	0.023111	0.015460	-0.539826	0.259084	0.753434	0.271663
10325		9.392393	1.119203	-2.393177	-0.043153	0.022957	0.015624	-0.539871	0.259272	0.753281	0.271817
10326		9.411645	1.161896	-2.418481	-0.047069	0.025847	0.013686	-0.539912	0.259458	0.753127	0.271985
10327		9.473666	1.250510	-2.472739	-0.046895	0.022952	0.014584	-0.539952	0.259649	0.752971	0.272154
10328		9.566433	1.288352	-2.521015	-0.062860	0.023444	0.014421	-0.539964	0.259885	0.752802	0.272376
10329		9.528256	1.208812	-2.495143	-0.077648	0.034598	0.023558	-0.540019	0.260178	0.752561	0.272652
10330		9.482837	1.196459	-2.455715	-0.077336	0.024463	0.020581	-0.540023	0.260475	0.752361	0.272912
10331		9.459015	1.173296	-2.525846	-0.082425	0.027252	0.019871	-0.540043	0.260774	0.752138	0.273202
10332		9.472144	1.270319	-2.556717	-0.095744	0.028401	0.024818	-0.540044	0.261132	0.751896	0.273524
10333		9.455373	1.213848	-2.545257	-0.107876	0.027886	0.027588	-0.540037	0.261534	0.751628	0.273890
10334		9.462809	1.160172	-2.534791	-0.111501	0.026833	0.028425	-0.540016	0.261951	0.751364	0.274258
10335		9.443274	1.123952	-2.536601	-0.114406	0.035376	0.028241	-0.540031	0.262362	0.751064	0.274656
10336		9.400696	1.091588	-2.483339	-0.106867	0.030017	0.027446	-0.540026	0.262759	0.750798	0.275013
10337		9.372397	1.149267	-2.430385	-0.116813	0.035246	0.030737	-0.540046	0.263181	0.750491	0.275409
10338		9.392601	1.212452	-2.378899	-0.119210	0.030716	0.028407	-0.540028	0.263615	0.750204	0.275810
10339		9.438618	1.251570	-2.369161	-0.116683	0.030656	0.030706	-0.540026	0.264049	0.749907	0.276206
10340		9.522342	1.172271	-2.368045	-0.121808	0.033520	0.030036	-0.540017	0.264491	0.749606	0.276615
10341		9.507410	1.108677	-2.322818	-0.122982	0.031652	0.030306	-0.540008	0.264939	0.749300	0.277034
10342		9.486914	1.085643	-2.304523	-0.104774	0.030667	0.025226	-0.540005	0.265320	0.749036	0.277390
10343		9.513776	1.062047	-2.342197	-0.086864	0.033686	0.017417	-0.540035	0.265613	0.748792	0.277710
10344		9.459297	1.123973	-2.321628	-0.076204	0.042450	0.017992	-0.540103	0.265874	0.748544	0.277995
10345		9.481923	1.147322	-2.331110	-0.068820	0.035608	0.011468	-0.540158	0.266095	0.748325	0.278268
10346		9.460312	1.118754	-2.367191	-0.064066	0.036859	0.009468	-0.540210	0.266297	0.748120	0.278524
10347		9.458599	1.139792	-2.376192	-0.072596	0.035682	0.010446	-0.540258	0.266528	0.747894	0.278816
10348		9.433467	1.145070	-2.405034	-0.078656	0.033660	0.010850	-0.540280	0.266780	0.747676	0.279118
10349		9.456012	1.169084	-2.414715	-0.088544	0.035296	0.012188	-0.540308	0.267057	0.747429	0.279460
10350		9.405857	1.204195	-2.347419	-0.107872	0.029067	0.014582	-0.540280	0.267409	0.747176	0.279854
10351		9.400588	1.259320	-2.348867	-0.131130	0.030148	0.019909	-0.540243	0.267838	0.746872	0.280326
10352		9.423175	1.283485	-2.358188	-0.139483	0.028630	0.025607	-0.540185	0.268318	0.746562	0.280805
10353		9.450187	1.260895	-2.395567	-0.146809	0.028374	0.028253	-0.540128	0.268826	0.746229	0.281311
10354		9.557837	1.185228	-2.395885	-0.144620	0.028046	0.023038	-0.540057	0.269310	0.745916	0.281816
10355		9.541517	1.116834	-2.406076	-0.150783	0.027934	0.024475	-0.539988	0.269818	0.745581	0.282347
10356		9.530376	1.007479	-2.390569	-0.125269	0.029014	0.017779	-0.539938	0.270228	0.745298	0.282796
10357		9.480954	1.029431	-2.343907	-0.105963	0.030968	0.010606	-0.539923	0.270553	0.745038	0.283202
10358		9.479969	1.056927	-2.298596	-0.096320	0.029806	0.004603	-0.539897	0.270833	0.744810	0.283581
10359		9.506599	1.053592	-2.262068	-0.084957	0.024258	0.004744	-0.539876	0.271086	0.744605	0.283918
10360		9.533171	1.049915	-2.225836	-0.069050	0.026452	0.004038	-0.539873	0.271294	0.744426	0.284194
10361		9.512061	1.028187	-2.209210	-0.064401	0.024502	-0.004658	-0.539868	0.271460	0.744260	0.284481
10362		9.510013	1.050666	-2.218891	-0.057347	0.029602	-0.007074	-0.539878	0.271591	0.744103	0.284748
10363		9.524385	1.137814	-2.268053	-0.049713	0.019771	-0.012860	-0.539864	0.271687	0.743982	0.284997
10364		9.483176	1.286525	-2.300443	-0.051034	0.025084	-0.008616	-0.539864	0.271800	0.743848	0.285239
10365		9.484527	1.275691	-2.318326	-0.053311	0.021220	-0.008195	-0.539858	0.271922	0.743711	0.285491
10366		9.443405	1.205400	-2.330439	-0.050697	0.019233	-0.006939	-0.539838	0.272048	0.743592	0.285720
10367		9.448915	1.166007	-2.302401	-0.038473	0.019639	-0.009704	-0.539844	0.272126	0.743483	0.285918
10368		9.475416	1.144552	-2.342280	-0.012525	0.020786	-0.008924	-0.539878	0.272138	0.743417	0.286013
10369		9.469731	1.199789	-2.344881	0.001841	0.026198	-0.013938	-0.539959	0.272078	0.743355	0.286079
10370		9.508402	1.288890	-2.394768	0.009088	0.028341	-0.015524	-0.540042	0.271996	0.743308	0.286123
10371		9.489763	1.246008	-2.366155	0.010663	0.025077	-0.011223	-0.540132	0.271930	0.743256	0.286150
10372		9.471139	1.202896	-2.337593	0.015417	0.028093	-0.012217	-0.540227	0.271844	0.743215	0.286161
10373		9.474203	1.183081	-2.322361	0.024022	0.027429	-0.014183	-0.540338	0.271727	0.743180	0.286150
10374		9.494376	1.232669	-2.292011	0.035202	0.026575	-0.013888	-0.540452	0.271583	0.743173	0.286091
10375		9.501976	1.166280	-2.305621	0.044885	0.029673	-0.015041	-0.540599	0.271404	0.743163	0.286010
10376		9.501475	1.179418	-2.282662	0.051123	0.028760	-0.014572	-0.540741	0.271210	0.743174	0.285896
10377		9.484304	1.128028	-2.221109	0.061309	0.020546	-0.017085	-0.540874	0.270986	0.743216	0.285746
10378		9.500211	1.205664	-2.237733	0.058209	0.032082	-0.017970	-0.541034	0.270756	0.743233	0.285620
10379		9.480426	1.175191	-2.188962	0.062379	0.020041	-0.021115	-0.541160	0.270517	0.743282	0.285480
10380		9.498688	1.232471	-2.193466	0.052769	0.017638	-0.017110	-0.541259	0.270323	0.743329	0.285354
10381		9.529322	1.181724	-2.187696	0.045338	0.018437	-0.016362	-0.541366	0.270147	0.743353	0.285255
10382		9.527486	1.184710	-2.274502	0.048999	0.017717	-0.018147	-0.541459	0.269960	0.743395	0.285146
10383		9.473987	1.220956	-2.298382	0.052659	0.017001	-0.019930	-0.541562	0.269758	0.743436	0.285034
10384		9.452937	1.203548	-2.229699	0.051604	0.015752	-0.016873	-0.541653	0.269571	0.743485	0.284909
10385		9.450384	1.224701	-2.242201	0.054289	0.007646	-0.021464	-0.541724	0.269365	0.743559	0.284779
10386		9.519494	1.266921	-2.235680	0.051902	0.011707	-0.014186	-0.541803	0.269192	0.743616	0.284639
10387		9.540187	1.303387	-2.227942	0.034760	0.011179	-0.011305	-0.541872	0.269077	0.743637	0.284563
10388		9.496274	1.275557	-2.125659	0.021660	0.004024	-0.008543	-0.541889	0.269019	0.743666	0.284510
10389		9.509773	1.155145	-2.135672	0.016836	0.000304	-0.010397	-0.541895	0.268972	0.743690	0.284481
10390		9.468020	1.077873	-2.204596	0.015710	-0.001644	-0.010191	-0.541881	0.268932	0.743727	0.284447
10391		9.491425	1.099862	-2.130653	0.020656	-0.005864	-0.015190	-0.541862	0.268865	0.743779	0.284411
10392		9.505451	1.190976	-2.129642	0.028016	-0.004811	-0.014913	-0.541846	0.268778	0.743849	0.284341
10393		9.521576	1.256039	-2.170138	0.035477	-0.007386	-0.016639	-0.541841	0.268662	0.743930	0.284249
10394		9.540310	1.300551	-2.197565	0.027957	-0.002986	-0.013906	-0.541833	0.268576	0.743994	0.284179
10395		9.473497	1.239065	-2.191765	0.024685	-0.012462	-0.015287	-0.541794	0.268506	0.744070	0.284120
10396		9.451964	1.198223	-2.254865	0.039421	-0.014662	-0.019577	-0.541750	0.268383	0.744189	0.284008
10397		9.509335	1.135843	-2.184808	0.049072	-0.011508	-0.020712	-0.541739	0.268225	0.744304	0.283876
10398		9.531028	1.141440	-2.275107	0.057699	-0.013928	-0.023637	-0.541717	0.268036	0.744452	0.283709
10399		9.519353	1.242748	-2.254302	0.053974	-0.011375	-0.020846	-0.541716	0.267860	0.744574	0.283557
10400		9.491983	1.261162	-2.268486	0.042897	-0.009891	-0.018333	-0.541696	0.267725	0.744683	0.283435
10401		9.456646	1.340948	-2.321992	0.028509	-0.016085	-0.016195	-0.541650	0.267643	0.744776	0.283357
10402		9.462509	1.287819	-2.318036	0.004025	-0.013424	-0.008769	-0.541578	0.267656	0.744827	0.283347
10403		9.450555	1.177887	-2.307868	0.001779	-0.017325	-0.008349	-0.541502	0.267679	0.744875	0.283345
10404		9.500663	1.158156	-2.351891	0.006749	-0.019030	-0.009496	-0.541412	0.267688	0.744947	0.283321
10405		9.521705	1.182144	-2.367332	0.013964	-0.016832	-0.011063	-0.541349	0.267667	0.745015	0.283281
10406		9.489496	1.247023	-2.353433	0.018692	-0.013780	-0.012056	-0.541291	0.267628	0.745092	0.283226
10407		9.462645	1.246437	-2.442445	0.021261	-0.013941	-0.009789	-0.541251	0.267588	0.745160	0.283161
10408		9.464875	1.226596	-2.430766	0.018499	-0.010834	-0.012898	-0.541203	0.267542	0.745230	0.283112
10409		9.423986	1.160533	-2.391630	0.011146	-0.011905	-0.013169	-0.541152	0.267514	0.745284	0.283096
10410		9.451023	1.149321	-2.326221	0.016476	-0.015168	-0.007792	-0.541091	0.267498	0.745356	0.283035
10411		9.519646	1.191622	-2.321702	0.016183	-0.008598	-0.006644	-0.541066	0.267480	0.745399	0.282989
10412		9.548926	1.154063	-2.297196	0.012540	-0.012199	-0.009692	-0.541009	0.267464	0.745460	0.282952
10413		9.459640	1.082366	-2.256811	0.008517	-0.009923	-0.014433	-0.540962	0.267435	0.745505	0.282951
10414		9.453834	1.124275	-2.284253	0.019713	-0.012495	-0.015096	-0.540906	0.267379	0.745584	0.282903
10415		9.445908	1.192202	-2.270556	0.020781	-0.008726	-0.014311	-0.540878	0.267321	0.745641	0.282859
10416		9.437286	1.254601	-2.311403	0.006424	-0.019262	-0.016989	-0.540777	0.267304	0.745722	0.282857
10417		9.491722	1.207858	-2.308222	-0.008722	-0.009413	-0.013398	-0.540708	0.267330	0.745739	0.282919
10418		9.492312	1.196116	-2.330015	-0.008151	-0.018227	-0.010855	-0.540600	0.267375	0.745788	0.282954
10419		9.494476	1.177147	-2.318423	-0.007260	-0.015836	-0.015747	-0.540505	0.267392	0.745830	0.283008
10420		9.487869	1.213746	-2.400351	-0.010777	-0.016249	-0.012121	-0.540399	0.267437	0.745871	0.283059
10421		9.438876	1.209640	-2.400400	-0.008767	-0.011906	-0.017226	-0.540318	0.267447	0.745901	0.283126
10422		9.442176	1.177976	-2.408865	-0.005163	-0.010801	-0.018013	-0.540232	0.267447	0.745943	0.283180
10423		9.409862	1.243967	-2.394335	-0.011203	-0.012866	-0.017643	-0.540141	0.267465	0.745973	0.283257
10424		9.459594	1.244001	-2.362689	-0.013558	-0.008831	-0.010398	-0.540061	0.267513	0.745988	0.283323
10425		9.456481	1.265768	-2.376544	-0.013508	-0.010642	-0.011392	-0.539985	0.267557	0.746001	0.283395
10426		9.461612	1.226195	-2.351149	-0.013419	-0.009954	-0.008554	-0.539903	0.267614	0.746017	0.283454
10427		9.466736	1.186619	-2.325852	-0.014632	-0.012588	-0.011177	-0.539820	0.267661	0.746034	0.283523
10428		9.466306	1.188199	-2.326793	-0.018522	-0.011436	-0.014069	-0.539718	0.267713	0.746054	0.283615
10429		9.461036	1.236414	-2.299510	-0.017261	-0.010609	-0.012440	-0.539634	0.267768	0.746061	0.283705
10430		9.464468	1.204375	-2.307818	-0.020776	-0.011026	-0.008811	-0.539538	0.267845	0.746070	0.283791
10431		9.461298	1.226300	-2.321752	-0.023304	-0.012670	-0.012065	-0.539441	0.267916	0.746075	0.283897
10432		9.467486	1.173990	-2.317017	-0.030618	-0.011251	-0.008490	-0.539332	0.268022	0.746070	0.284018
10433		9.464936	1.201856	-2.276784	-0.030563	-0.017358	-0.014312	-0.539203	0.268112	0.746080	0.284150
10434		9.466464	1.177793	-2.319264	-0.028132	-0.016389	-0.013891	-0.539071	0.268197	0.746099	0.284270
10435		9.456607	1.254108	-2.338656	-0.029744	-0.008840	-0.013370	-0.538976	0.268279	0.746085	0.284409
10436		9.475912	1.286718	-2.386567	-0.028289	-0.010951	-0.010897	-0.538868	0.268369	0.746085	0.284528
10437		9.499725	1.291353	-2.387919	-0.035506	-0.013150	-0.009309	-0.538755	0.268486	0.746070	0.284672
10438		9.437108	1.196961	-2.388847	-0.042968	-0.010601	-0.007566	-0.538633	0.268628	0.746044	0.284836
10439		9.439564	1.178323	-2.376279	-0.037024	-0.009209	-0.010774	-0.538532	0.268740	0.746016	0.284994
10440		9.455049	1.244213	-2.416487	-0.030552	-0.010531	-0.005630	-0.538429	0.268855	0.746006	0.285108
10441		9.470564	1.309905	-2.456591	-0.035673	-0.007700	-0.006303	-0.538340	0.268976	0.745972	0.285250
10442		9.473804	1.296571	-2.389601	-0.038208	-0.009329	-0.009553	-0.538226	0.269096	0.745952	0.285404
10443		9.432826	1.225268	-2.403715	-0.033393	-0.001308	-0.002885	-0.538173	0.269209	0.745901	0.285531
10444		9.456140	1.224046	-2.458654	-0.024808	-0.006189	-0.009676	-0.538089	0.269288	0.745892	0.285640
10445		9.456687	1.230822	-2.404447	-0.027253	-0.002856	-0.005256	-0.538032	0.269380	0.745856	0.285752
10446		9.456509	1.232151	-2.404468	-0.023691	-0.004233	-0.009885	-0.537956	0.269452	0.745844	0.285860
10447		9.478810	1.243906	-2.438647	-0.023698	0.000056	-0.005048	-0.537914	0.269533	0.745806	0.285962
10448		9.457328	1.221670	-2.424728	-0.026283	0.000234	-0.007300	-0.537855	0.269616	0.745774	0.286078
10449		9.458019	1.228150	-2.370087	-0.026044	-0.000223	-0.002623	-0.537813	0.269716	0.745728	0.286183
10450		9.405697	1.256706	-2.360620	-0.036095	0.002505	-0.003122	-0.537755	0.269838	0.745670	0.286327
10451		9.475537	1.287124	-2.374943	-0.023705	0.000069	-0.005041	-0.537715	0.269920	0.745630	0.286429
10452		9.502540	1.270603	-2.362253	-0.026196	0.000921	-0.004455	-0.537663	0.270012	0.745593	0.286537
10453		9.464596	1.178434	-2.363153	-0.015316	0.002413	-0.007840	-0.537638	0.270059	0.745562	0.286619
10454		9.462778	1.187125	-2.396370	-0.005606	0.003761	-0.010014	-0.537616	0.270071	0.745554	0.286671
10455		9.455709	1.260624	-2.326137	-0.002187	0.003519	-0.016483	-0.537600	0.270045	0.745552	0.286729
10456		9.447488	1.305193	-2.439435	-0.009319	0.006273	-0.007217	-0.537587	0.270074	0.745528	0.286789
10457		9.453208	1.265130	-2.412825	-0.014248	0.006168	-0.007047	-0.537580	0.270112	0.745488	0.286870
10458		9.435726	1.209351	-2.406343	-0.019126	0.004258	-0.007878	-0.537545	0.270168	0.745456	0.286966
10459		9.465644	1.172338	-2.380461	-0.012932	0.005178	-0.006420	-0.537534	0.270214	0.745418	0.287042
10460		9.457900	1.240124	-2.364321	-0.009271	0.004473	-0.008216	-0.537513	0.270241	0.745400	0.287103
10461		9.481084	1.257062	-2.343605	-0.005806	0.006709	-0.010845	-0.537510	0.270245	0.745377	0.287165
10462		9.481137	1.257997	-2.342890	-0.001955	0.007341	-0.006966	-0.537511	0.270253	0.745360	0.287199
10463		9.452346	1.284049	-2.388173	0.005223	0.007067	-0.012393	-0.537526	0.270215	0.745354	0.287222
10464		9.478393	1.280122	-2.354569	0.012831	0.007664	-0.007472	-0.537547	0.270181	0.745359	0.287203
10465		9.483458	1.234520	-2.382285	0.017173	0.012318	-0.014981	-0.537591	0.270104	0.745356	0.287201
10466		9.432260	1.249862	-2.393252	0.024883	0.009309	-0.012061	-0.537628	0.270017	0.745379	0.287152
10467		9.456562	1.253339	-2.393284	0.023708	0.009169	-0.010849	-0.537674	0.269938	0.745391	0.287110
10468		9.476983	1.290105	-2.385479	0.022483	0.010833	-0.008636	-0.537719	0.269868	0.745402	0.287062
10469		9.505951	1.265330	-2.338751	0.023652	0.010981	-0.009844	-0.537774	0.269791	0.745407	0.287019
10470		9.480137	1.270301	-2.370911	0.022279	0.013781	-0.009468	-0.537828	0.269715	0.745411	0.286978
10471		9.477461	1.291298	-2.382934	0.024672	0.012268	-0.012885	-0.537886	0.269622	0.745418	0.286939
10472		9.458051	1.260527	-2.334714	0.027241	0.016379	-0.005793	-0.537961	0.269543	0.745418	0.286873
10473		9.452580	1.301639	-2.359710	0.029740	0.011254	-0.011208	-0.538026	0.269439	0.745434	0.286807
10474		9.435305	1.245011	-2.353051	0.022416	0.012661	-0.007625	-0.538079	0.269371	0.745439	0.286759
10475		9.465424	1.207196	-2.326752	0.021243	0.012519	-0.006415	-0.538144	0.269307	0.745433	0.286714
10476		9.489863	1.210394	-2.326347	0.021094	0.013657	-0.008250	-0.538197	0.269239	0.745434	0.286674
10477		9.467581	1.200175	-2.291107	0.017485	0.012554	-0.007459	-0.538254	0.269185	0.745423	0.286647
10478		9.485193	1.257476	-2.296008	0.013731	0.012583	-0.008505	-0.538293	0.269138	0.745417	0.286634
10479		9.487099	1.250508	-2.261305	0.008805	0.012467	-0.008343	-0.538336	0.269105	0.745394	0.286644
10480		9.467487	1.196379	-2.342466	0.010084	0.008999	-0.011548	-0.538353	0.269061	0.745396	0.286648
10481		9.450185	1.140321	-2.335701	0.014806	0.012062	-0.012545	-0.538399	0.268993	0.745389	0.286643
10482		9.473374	1.157186	-2.314781	0.017348	0.009413	-0.014121	-0.538424	0.268919	0.745404	0.286628
10483		9.467714	1.199036	-2.340189	0.025929	0.008839	-0.016065	-0.538465	0.268817	0.745425	0.286590
10484		9.464920	1.220452	-2.352484	0.023235	0.012629	-0.016322	-0.538507	0.268714	0.745442	0.286564
10485		9.437903	1.238889	-2.364205	0.021001	0.008726	-0.015902	-0.538545	0.268619	0.745458	0.286539
10486		9.460444	1.250290	-2.397836	0.022262	0.009548	-0.014273	-0.538577	0.268531	0.745480	0.286506
10487		9.488203	1.215106	-2.459564	0.025808	0.012473	-0.014059	-0.538635	0.268432	0.745489	0.286468
10488		9.439344	1.228329	-2.382422	0.026716	0.017375	-0.015106	-0.538700	0.268318	0.745496	0.286431
10489		9.459701	1.265547	-2.374378	0.034382	0.011915	-0.015992	-0.538764	0.268190	0.745521	0.286368
10490		9.453008	1.320038	-2.378766	0.024311	0.018902	-0.011691	-0.538836	0.268093	0.745517	0.286332
10491		9.434705	1.276710	-2.351012	0.027114	0.011505	-0.013417	-0.538893	0.267991	0.745530	0.286285
10492		9.444602	1.203132	-2.331489	0.019498	0.015164	-0.013527	-0.538943	0.267906	0.745531	0.286268
10493		9.493269	1.209905	-2.331275	0.026790	0.018076	-0.012260	-0.539028	0.267797	0.745526	0.286225
10494		9.488277	1.256964	-2.301841	0.032933	0.016551	-0.014610	-0.539099	0.267669	0.745544	0.286162
10495		9.482789	1.298338	-2.326730	0.025612	0.017940	-0.011049	-0.539183	0.267571	0.745535	0.286119
10496		9.458717	1.296012	-2.325208	0.024579	0.009883	-0.016657	-0.539216	0.267467	0.745562	0.286085
10497		9.490460	1.251574	-2.264927	0.026923	0.016964	-0.010413	-0.539296	0.267373	0.745555	0.286039
10498		9.470116	1.209776	-2.324891	0.031689	0.018238	-0.012397	-0.539375	0.267255	0.745564	0.285978
10499		9.439141	1.261142	-2.328954	0.034348	0.011977	-0.015950	-0.539441	0.267123	0.745590	0.285911
10500		9.473264	1.190538	-2.310030	0.030834	0.011538	-0.012333	-0.539493	0.267016	0.745615	0.285844
10501		9.446315	1.208314	-2.321850	0.028343	0.012380	-0.011759	-0.539559	0.266913	0.745627	0.285787
10502		9.472272	1.204581	-2.288006	0.027288	0.008615	-0.012541	-0.539595	0.266819	0.745656	0.285729
10503		9.493689	1.228608	-2.301052	0.022311	0.010291	-0.011399	-0.539642	0.266746	0.745661	0.285698
10504		9.462562	1.279986	-2.305671	0.024855	0.007648	-0.012961	-0.539671	0.266658	0.745690	0.285649
10505		9.536460	1.276838	-2.327284	0.027132	0.009761	-0.014372	-0.539720	0.266556	0.745709	0.285603
10506		9.458516	1.314705	-2.297291	0.027426	0.007500	-0.010693	-0.539755	0.266470	0.745739	0.285538
10507		9.438436	1.278714	-2.303797	0.019934	0.007517	-0.012810	-0.539789	0.266392	0.745753	0.285510
10508		9.445431	1.225495	-2.297704	0.021398	0.005403	-0.010335	-0.539809	0.266327	0.745779	0.285464
10509		9.447016	1.218865	-2.263856	0.020199	0.002766	-0.012955	-0.539825	0.266258	0.745805	0.285430
10510		9.471166	1.222727	-2.264208	0.018820	0.005563	-0.012596	-0.539839	0.266191	0.745831	0.285400
10511		9.513800	1.270324	-2.291287	0.012885	0.004138	-0.009411	-0.539855	0.266155	0.745837	0.285386
10512		9.465353	1.264719	-2.290046	0.012885	0.004139	-0.009410	-0.539860	0.266118	0.745853	0.285368
10513		9.468187	1.245008	-2.276731	0.012944	0.002328	-0.010401	-0.539867	0.266079	0.745868	0.285354
10514		9.473486	1.199274	-2.304594	0.017618	0.002930	-0.015212	-0.539866	0.266009	0.745901	0.285333
10515		9.470813	1.226521	-2.263632	0.020312	-0.000844	-0.014930	-0.539868	0.265933	0.745941	0.285297
10516		9.489066	1.271099	-2.290801	0.019231	-0.000312	-0.010896	-0.539863	0.265879	0.745981	0.285253
10517		9.456009	1.329661	-2.330162	0.007131	-0.002722	-0.009198	-0.539845	0.265869	0.745997	0.285253
10518		9.461254	1.283716	-2.358382	-0.000117	-0.003172	-0.006651	-0.539810	0.265887	0.746011	0.285266
10519		9.439850	1.260759	-2.344790	-0.007487	0.000002	-0.002122	-0.539793	0.265939	0.745991	0.285301
10520		9.468118	1.230913	-2.352789	-0.003711	-0.004303	-0.005874	-0.539749	0.265972	0.746003	0.285324
10521		9.468313	1.237654	-2.298828	-0.001524	-0.002869	-0.010118	-0.539719	0.265978	0.746011	0.285354
10522		9.488176	1.275159	-2.292230	-0.003861	-0.003170	-0.007712	-0.539677	0.266003	0.746021	0.285384
10523		9.467950	1.239288	-2.299442	-0.001225	-0.005133	-0.006440	-0.539644	0.266025	0.746031	0.285399
10524		9.440658	1.257189	-2.312473	-0.005029	-0.003320	-0.006509	-0.539602	0.266058	0.746038	0.285430
10525		9.441733	1.244747	-2.333408	-0.004818	-0.006264	-0.005661	-0.539560	0.266098	0.746043	0.285459
10526		9.467347	1.241306	-2.300839	0.000154	-0.007924	-0.006795	-0.539506	0.266122	0.746071	0.285465
10527		9.518002	1.221950	-2.343768	0.002640	-0.008754	-0.007361	-0.539464	0.266136	0.746097	0.285466
10528		9.468125	1.229395	-2.322707	0.005900	-0.001055	-0.007005	-0.539443	0.266133	0.746114	0.285460
10529		9.466644	1.243149	-2.302735	0.006293	-0.009432	-0.009130	-0.539400	0.266132	0.746150	0.285451
10530		9.440915	1.253860	-2.282361	0.003534	-0.003847	-0.008420	-0.539364	0.266135	0.746173	0.285455
10531		9.486138	1.281069	-2.297363	0.001683	-0.011847	-0.005309	-0.539310	0.266164	0.746203	0.285450
10532		9.494634	1.220426	-2.258765	-0.004518	-0.008528	-0.001981	-0.539255	0.266219	0.746220	0.285459
10533		9.492659	1.228020	-2.293558	-0.003018	-0.014941	-0.004317	-0.539186	0.266267	0.746251	0.285463
10534		9.465160	1.245867	-2.307361	0.001379	-0.009580	-0.008986	-0.539125	0.266281	0.746288	0.285469
10535		9.461390	1.261147	-2.376014	0.005304	-0.015010	-0.010898	-0.539059	0.266281	0.746340	0.285459
10536		9.459679	1.275045	-2.356896	0.008987	-0.013197	-0.008848	-0.538994	0.266280	0.746397	0.285432
10537		9.426311	1.333393	-2.397009	0.008805	-0.007765	-0.005877	-0.538966	0.266280	0.746428	0.285405
10538		9.504473	1.302519	-2.373401	0.011562	-0.013345	-0.006585	-0.538907	0.266280	0.746487	0.285362
10539		9.464105	1.229630	-2.388212	0.001619	-0.010031	-0.004315	-0.538860	0.266314	0.746510	0.285358
10540		9.391623	1.226394	-2.333462	0.003150	-0.013952	-0.002830	-0.538793	0.266352	0.746554	0.285335
10541		9.442611	1.212735	-2.322677	0.005330	-0.012515	-0.007075	-0.538740	0.266365	0.746593	0.285320
10542		9.486913	1.258924	-2.263474	0.005482	-0.013646	-0.005235	-0.538674	0.266387	0.746643	0.285295
10543		9.487725	1.246386	-2.285470	0.000537	-0.016287	-0.008907	-0.538596	0.266415	0.746686	0.285302
10544		9.488575	1.233858	-2.307279	-0.008051	-0.011468	-0.002181	-0.538524	0.266483	0.746706	0.285321
10545		9.445153	1.181686	-2.335493	-0.007848	-0.021191	-0.009957	-0.538416	0.266534	0.746754	0.285352
10546		9.426362	1.138968	-2.310121	-0.003423	-0.013343	-0.010812	-0.538332	0.266560	0.746797	0.285376
10547		9.467105	1.200073	-2.318590	-0.004165	-0.019375	-0.007909	-0.538241	0.266600	0.746844	0.285386
10548		9.459429	1.254812	-2.325941	-0.008183	-0.014626	-0.008823	-0.538149	0.266647	0.746881	0.285421
10549		9.481408	1.266168	-2.361611	-0.010456	-0.016738	-0.007404	-0.538056	0.266712	0.746908	0.285463
10550		9.482652	1.259957	-2.329431	-0.010399	-0.018544	-0.008392	-0.537946	0.266772	0.746952	0.285500
10551		9.478531	1.275500	-2.398639	-0.006691	-0.021024	-0.011154	-0.537839	0.266813	0.747003	0.285528
10552		9.456745	1.253194	-2.386523	-0.003373	-0.015139	-0.011797	-0.537747	0.266837	0.747052	0.285553
10553		9.456234	1.254302	-2.387967	-0.003219	-0.016270	-0.009958	-0.537663	0.266872	0.747091	0.285575
10554		9.455749	1.255223	-2.389402	0.001633	-0.014306	-0.009119	-0.537584	0.266891	0.747141	0.285574
10555		9.451715	1.270513	-2.458156	0.000312	-0.013325	-0.009752	-0.537516	0.266912	0.747178	0.285586
10556		9.454859	1.257006	-2.391985	0.000311	-0.013324	-0.009752	-0.537438	0.266931	0.747224	0.285593
10557		9.452624	1.264956	-2.427020	-0.001864	-0.014762	-0.005504	-0.537368	0.266975	0.747257	0.285599
10558		9.472217	1.302257	-2.421398	0.000193	-0.009708	-0.007773	-0.537307	0.266997	0.747291	0.285605
10559		9.427746	1.263054	-2.428383	-0.001030	-0.008055	-0.005579	-0.537264	0.267027	0.747308	0.285614
10560		9.426235	1.276862	-2.408665	0.001357	-0.009553	-0.008977	-0.537203	0.267041	0.747344	0.285620
10561		9.454332	1.247448	-2.417502	0.003627	-0.007439	-0.010397	-0.537162	0.267038	0.747373	0.285624
10562		9.451050	1.268445	-2.431324	0.008578	-0.004800	-0.006734	-0.537132	0.267034	0.747404	0.285603
10563		9.452685	1.261672	-2.398115	0.006093	-0.003975	-0.006163	-0.537113	0.267036	0.747421	0.285591
10564		9.453732	1.248929	-2.419084	0.008519	-0.002993	-0.005745	-0.537091	0.267034	0.747446	0.285570
10565		9.451750	1.256550	-2.453191	0.010847	-0.002684	-0.008154	-0.537080	0.267014	0.747469	0.285548
10566		9.452187	1.262954	-2.399403	0.008576	-0.004798	-0.006732	-0.537050	0.267010	0.747501	0.285527
10567		9.433879	1.219615	-2.372876	0.005935	-0.002842	-0.008000	-0.537030	0.267010	0.747515	0.285527
10568		9.474833	1.280296	-2.380310	0.008518	-0.002990	-0.005744	-0.537008	0.267008	0.747540	0.285506
10569		9.466804	1.328394	-2.440724	0.003706	-0.002475	-0.002763	-0.536996	0.267029	0.747545	0.285496
10570		9.451605	1.264515	-2.400870	0.003607	-0.003149	-0.005590	-0.536967	0.267041	0.747563	0.285492
10571		9.407354	1.225124	-2.407149	-0.002682	-0.000525	-0.005082	-0.536953	0.267061	0.747558	0.285511
10572		9.410330	1.205335	-2.393955	0.000908	0.000612	-0.005870	-0.536934	0.267075	0.747563	0.285522
10573		9.454409	1.245755	-2.387809	0.000908	0.000613	-0.005869	-0.536926	0.267085	0.747561	0.285533
10574		9.477311	1.262555	-2.367993	-0.000041	-0.002480	-0.003814	-0.536896	0.267113	0.747570	0.285539
10575		9.477196	1.262923	-2.368259	-0.003630	-0.003618	-0.003027	-0.536870	0.267155	0.747567	0.285556
10576		9.432988	1.223433	-2.374451	0.003333	0.001596	-0.005452	-0.536858	0.267162	0.747572	0.285559
10577		9.434090	1.210904	-2.395107	0.008261	-0.002529	-0.010408	-0.536841	0.267141	0.747593	0.285554
10578		9.456312	1.221998	-2.429629	0.008144	0.001084	-0.008432	-0.536830	0.267125	0.747610	0.285546
10579		9.474336	1.266323	-2.456649	0.010727	0.000936	-0.006176	-0.536834	0.267112	0.747619	0.285526
10580		9.425301	1.279319	-2.380661	0.007137	-0.000202	-0.005388	-0.536821	0.267111	0.747635	0.285512
10581		9.453038	1.243447	-2.443102	0.006032	-0.002163	-0.005171	-0.536810	0.267116	0.747645	0.285501
10582		9.453595	1.249848	-2.388896	0.008084	0.002892	-0.007443	-0.536806	0.267101	0.747656	0.285494
10583		9.457810	1.216983	-2.396155	0.009305	0.001242	-0.009635	-0.536806	0.267077	0.747667	0.285487
10584		9.498165	1.271742	-2.457551	0.010725	0.000940	-0.006174	-0.536801	0.267062	0.747686	0.285464
10585		9.444233	1.312310	-2.428404	0.010566	0.002072	-0.008013	-0.536807	0.267040	0.747694	0.285449
10586		9.469617	1.302895	-2.449402	0.005598	0.003715	-0.006872	-0.536804	0.267033	0.747698	0.285450
10587		9.428586	1.242979	-2.442070	0.009502	0.002592	-0.003982	-0.536818	0.267023	0.747701	0.285427
10588		9.404432	1.239884	-2.441225	0.010606	0.004555	-0.004199	-0.536829	0.267012	0.747706	0.285404
10589		9.435391	1.208700	-2.360987	0.010664	0.002749	-0.005185	-0.536843	0.266995	0.747711	0.285380
10590		9.430488	1.236430	-2.407789	0.011826	0.002906	-0.006389	-0.536846	0.266974	0.747726	0.285356
10591		9.479452	1.249381	-2.354670	0.015314	0.003374	-0.010000	-0.536862	0.266925	0.747742	0.285328
10592		9.461967	1.186833	-2.402320	0.015471	0.002244	-0.008161	-0.536865	0.266888	0.747766	0.285294
10593		9.458289	1.226743	-2.340506	0.015194	0.006990	-0.008026	-0.536896	0.266847	0.747768	0.285270
10594		9.461288	1.207030	-2.327265	0.020396	-0.001874	-0.013107	-0.536883	0.266784	0.747816	0.285226
10595		9.458117	1.227998	-2.340544	0.016413	0.005343	-0.010215	-0.536905	0.266736	0.747826	0.285203
10596		9.433270	1.219392	-2.394031	0.017693	0.001888	-0.013389	-0.536903	0.266674	0.747861	0.285175
10597		9.431888	1.233330	-2.373698	0.016747	-0.001204	-0.011331	-0.536902	0.266625	0.747892	0.285142
10598		9.451059	1.264685	-2.421341	0.015147	0.004517	-0.011834	-0.536908	0.266572	0.747913	0.285122
10599		9.428047	1.248978	-2.441089	0.020112	0.002883	-0.012968	-0.536924	0.266502	0.747941	0.285086
10600		9.447842	1.286314	-2.434404	0.020210	0.003561	-0.010142	-0.536936	0.266443	0.747970	0.285041
10601		9.429150	1.236970	-2.461539	0.022592	0.002071	-0.013532	-0.536951	0.266367	0.748003	0.284998
10602		9.445841	1.294667	-2.468113	0.020047	0.004697	-0.011979	-0.536964	0.266300	0.748032	0.284960
10603		9.444613	1.308520	-2.447184	0.013700	0.009113	-0.010497	-0.536999	0.266249	0.748029	0.284949
10604		9.423554	1.285551	-2.432845	0.011655	0.004056	-0.008220	-0.537004	0.266220	0.748043	0.284932
10605		9.453923	1.248786	-2.406673	0.009172	0.004873	-0.007653	-0.537020	0.266196	0.748043	0.284923
10606		9.411753	1.202254	-2.378535	0.004267	0.004698	-0.007505	-0.537019	0.266189	0.748043	0.284932
10607		9.466294	1.168924	-2.352983	0.010393	0.003224	-0.009839	-0.537025	0.266164	0.748049	0.284928
10608		9.494112	1.158888	-2.285817	0.007751	0.005172	-0.011113	-0.537025	0.266133	0.748057	0.284935
10609		9.486582	1.213599	-2.291681	0.010354	0.000743	-0.013646	-0.537020	0.266088	0.748078	0.284933
10610		9.510592	1.218079	-2.292392	0.010254	0.000068	-0.016468	-0.536997	0.266037	0.748110	0.284938
10611		9.440401	1.183100	-2.331530	0.001705	0.000549	-0.014553	-0.536979	0.266011	0.748120	0.284969
10612		9.436562	1.198637	-2.399002	0.005188	0.001025	-0.018159	-0.536951	0.265967	0.748145	0.285000
10613		9.454323	1.244036	-2.426184	0.007670	0.000212	-0.018723	-0.536931	0.265919	0.748166	0.285026
10614		9.455908	1.238540	-2.392614	0.011472	-0.001572	-0.018650	-0.536900	0.265859	0.748207	0.285032
10615		9.430159	1.250038	-2.371828	0.010211	-0.002405	-0.020270	-0.536874	0.265795	0.748244	0.285045
10616		9.447801	1.295436	-2.399360	0.007888	-0.002721	-0.017864	-0.536836	0.265749	0.748282	0.285059
10617		9.450667	1.276554	-2.386357	0.005504	-0.001231	-0.014477	-0.536816	0.265717	0.748302	0.285075
10618		9.472733	1.288222	-2.421100	0.005627	-0.004843	-0.016442	-0.536768	0.265685	0.748341	0.285092
10619		9.427235	1.262795	-2.406844	0.000438	-0.000279	-0.016168	-0.536742	0.265662	0.748352	0.285134
10620		9.430122	1.244062	-2.393738	0.001821	-0.003056	-0.016513	-0.536696	0.265638	0.748381	0.285167
10621		9.431686	1.238603	-2.360293	0.002980	-0.002895	-0.017714	-0.536661	0.265607	0.748404	0.285202
10622		9.481023	1.233739	-2.382376	0.001719	-0.003728	-0.019333	-0.536608	0.265573	0.748438	0.285242
10623		9.474999	1.282186	-2.354957	0.005236	-0.000765	-0.019134	-0.536581	0.265530	0.748460	0.285276
10624		9.448718	1.287453	-2.388220	0.002915	-0.001084	-0.016729	-0.536543	0.265499	0.748485	0.285308
10625		9.443450	1.316176	-2.435483	0.000657	-0.003210	-0.015308	-0.536507	0.265484	0.748504	0.285344
10626		9.397450	1.284477	-2.475339	0.000431	-0.000271	-0.016164	-0.536470	0.265461	0.748522	0.285385
10627		9.424533	1.269102	-2.462863	0.001816	-0.003047	-0.016508	-0.536434	0.265438	0.748543	0.285421
10628		9.472642	1.277252	-2.464304	-0.001890	-0.000592	-0.013759	-0.536396	0.265431	0.748556	0.285464
10629		9.454571	1.234799	-2.437280	0.000655	-0.003206	-0.015306	-0.536359	0.265417	0.748573	0.285501
10630		9.446714	1.289849	-2.443504	0.000529	0.000406	-0.013341	-0.536329	0.265404	0.748587	0.285534
10631		9.448399	1.284269	-2.409693	-0.000896	0.000705	-0.016798	-0.536304	0.265379	0.748595	0.285583
10632		9.445014	1.305981	-2.423004	0.000591	-0.001397	-0.014322	-0.536266	0.265365	0.748615	0.285617
10633		9.427035	1.263284	-2.395830	0.000629	0.001082	-0.010519	-0.536253	0.265357	0.748617	0.285641
10634		9.446582	1.301423	-2.389098	0.000198	0.002676	-0.017016	-0.536226	0.265328	0.748628	0.285689
10635		9.475608	1.278991	-2.342695	0.001913	-0.002365	-0.013684	-0.536195	0.265317	0.748643	0.285719
10636		9.474068	1.293519	-2.322413	0.000589	-0.001394	-0.014320	-0.536157	0.265302	0.748663	0.285753
10637		9.477812	1.255127	-2.383981	-0.000571	-0.001555	-0.013118	-0.536127	0.265299	0.748670	0.285792
10638		9.427906	1.262959	-2.362489	-0.001769	-0.004194	-0.015718	-0.536073	0.265290	0.748696	0.285835
10639		9.454464	1.241366	-2.404301	0.005324	-0.000067	-0.016304	-0.536054	0.265251	0.748715	0.285857
10640		9.423634	1.279792	-2.430547	0.010517	-0.004618	-0.016575	-0.536014	0.265205	0.748760	0.285856
10641		9.446222	1.297793	-2.410981	0.002839	0.000742	-0.015738	-0.535996	0.265173	0.748772	0.285887
10642		9.391229	1.332763	-2.436517	0.003297	-0.005133	-0.014025	-0.535947	0.265157	0.748806	0.285906
10643		9.442545	1.320552	-2.424729	0.002939	0.001416	-0.012918	-0.535934	0.265139	0.748812	0.285933
10644		9.448791	1.281248	-2.398235	0.000749	-0.002521	-0.012478	-0.535894	0.265132	0.748832	0.285959
10645		9.445377	1.302635	-2.411682	0.001844	-0.000551	-0.012697	-0.535871	0.265123	0.748841	0.285989
10646		9.468821	1.300834	-2.466653	0.004428	-0.000685	-0.010442	-0.535846	0.265111	0.748860	0.285998
10647		9.443719	1.317950	-2.391354	0.000518	0.000419	-0.013333	-0.535826	0.265097	0.748866	0.286032
10648		9.416971	1.316258	-2.478724	-0.003948	-0.001371	-0.006692	-0.535792	0.265124	0.748870	0.286062
10649		9.440148	1.340064	-2.404965	0.000978	-0.005456	-0.011620	-0.535752	0.265124	0.748890	0.286083
10650		9.423629	1.283840	-2.398301	-0.004244	0.003372	-0.006567	-0.535735	0.265145	0.748880	0.286119
10651		9.447693	1.288218	-2.398826	-0.001736	-0.001711	-0.011912	-0.535706	0.265146	0.748887	0.286156
10652		9.471697	1.292773	-2.399490	0.001777	0.001258	-0.011714	-0.535683	0.265135	0.748898	0.286181
10653		9.450117	1.263841	-2.439667	0.003037	0.002093	-0.010096	-0.535677	0.265123	0.748899	0.286199
10654		9.380757	1.234111	-2.424457	0.009327	-0.000484	-0.010587	-0.535659	0.265098	0.748924	0.286191
10655		9.419809	1.308689	-2.411398	0.007937	0.002290	-0.010242	-0.535660	0.265073	0.748932	0.286192
10656		9.490796	1.333186	-2.392944	0.005647	-0.002318	-0.012621	-0.535627	0.265053	0.748959	0.286201
10657		9.469805	1.310402	-2.378799	-0.002060	0.007311	-0.007006	-0.535637	0.265063	0.748934	0.286237
10658		9.427326	1.257694	-2.405071	0.000978	-0.005452	-0.011617	-0.535587	0.265063	0.748962	0.286257
10659		9.425231	1.265656	-2.439100	0.001941	0.000126	-0.009875	-0.535574	0.265056	0.748968	0.286274
10660		9.420542	1.299987	-2.431817	0.006610	0.003263	-0.010878	-0.535566	0.265032	0.748980	0.286282
10661		9.462240	1.348213	-2.459689	0.006907	-0.001479	-0.011001	-0.535550	0.265013	0.748997	0.286284
10662		9.417025	1.321851	-2.445259	0.005684	0.000160	-0.008820	-0.535531	0.265003	0.749013	0.286285
10663		9.447566	1.285493	-2.419458	0.002276	-0.002141	-0.006199	-0.535514	0.265015	0.749020	0.286290
10664		9.425200	1.275668	-2.385144	0.003201	0.000963	-0.008256	-0.535495	0.265012	0.749029	0.286300
10665		9.449292	1.280019	-2.385574	0.000381	0.004036	-0.011367	-0.535492	0.265002	0.749023	0.286334
10666		9.465494	1.338044	-2.392183	0.005683	0.000162	-0.008819	-0.535473	0.264992	0.749039	0.286336
10667		9.418440	1.318556	-2.411371	0.003200	0.000965	-0.008256	-0.535465	0.264991	0.749041	0.286348
10668		9.422957	1.285891	-2.418520	0.001939	0.000130	-0.009873	-0.535440	0.264987	0.749053	0.286366
10669		9.452119	1.263070	-2.372253	0.003330	-0.002642	-0.010216	-0.535416	0.264982	0.749068	0.286377
10670		9.454670	1.237419	-2.413441	0.005747	-0.001639	-0.009798	-0.535390	0.264970	0.749090	0.286379
10671		9.456367	1.231468	-2.379966	0.004383	-0.003143	-0.014233	-0.535359	0.264950	0.749112	0.286398
10672		9.454704	1.245902	-2.360069	0.013156	-0.006512	-0.015284	-0.535316	0.264904	0.749165	0.286382
10673		9.449814	1.280447	-2.353327	0.010307	0.000836	-0.013618	-0.535310	0.264862	0.749184	0.286381
10674		9.449033	1.275101	-2.407992	0.015741	-0.006640	-0.013028	-0.535273	0.264818	0.749239	0.286348
10675		9.464958	1.333241	-2.415436	0.015335	-0.002565	-0.015722	-0.535258	0.264759	0.749277	0.286330
10676		9.416385	1.327367	-2.414560	0.009278	-0.002935	-0.014375	-0.535225	0.264723	0.749314	0.286330
10677		9.441631	1.318702	-2.436151	0.007030	-0.005073	-0.012954	-0.535193	0.264702	0.749343	0.286333
10678		9.418577	1.302949	-2.456470	0.003391	-0.004441	-0.011191	-0.535151	0.264695	0.749371	0.286344
10679		9.422982	1.270779	-2.463939	0.000463	-0.002040	-0.017118	-0.535115	0.264673	0.749388	0.286387
10680		9.420000	1.298539	-2.423277	0.003324	-0.002636	-0.010211	-0.535081	0.264668	0.749410	0.286398
10681		9.441133	1.329545	-2.383543	0.005938	-0.007040	-0.012731	-0.535041	0.264651	0.749444	0.286400
10682		9.436965	1.344619	-2.451637	-0.004097	-0.004514	-0.013296	-0.534986	0.264657	0.749464	0.286444
10683		9.441970	1.318665	-2.404809	-0.004058	-0.002042	-0.009501	-0.534955	0.264675	0.749465	0.286483
10684		9.422277	1.282773	-2.411601	-0.003927	-0.005648	-0.011459	-0.534898	0.264689	0.749486	0.286520
10685		9.444778	1.300735	-2.392234	-0.006410	-0.004849	-0.010895	-0.534852	0.264712	0.749493	0.286568
10686		9.443984	1.295456	-2.446821	-0.000250	-0.003805	-0.009426	-0.534810	0.264721	0.749512	0.286588
10687		9.442418	1.309564	-2.426637	-0.000317	-0.002002	-0.008447	-0.534787	0.264730	0.749518	0.286607
10688		9.442141	1.310682	-2.427109	0.000931	-0.007907	-0.015398	-0.534723	0.264719	0.749557	0.286635
10689		9.444593	1.285465	-2.468521	0.000732	-0.002498	-0.012462	-0.534694	0.264711	0.749571	0.286660
10690		9.441650	1.313094	-2.427717	-0.001817	0.000102	-0.010920	-0.534663	0.264713	0.749579	0.286696
10691		9.467002	1.304457	-2.448942	-0.000424	-0.002666	-0.011261	-0.534632	0.264716	0.749589	0.286724
10692		9.437976	1.335351	-2.441241	-0.004128	-0.000237	-0.008520	-0.534599	0.264734	0.749592	0.286761
10693		9.442535	1.302771	-2.448527	-0.007462	-0.004350	-0.006877	-0.534559	0.264773	0.749591	0.286802
10694		9.393484	1.290283	-2.501678	-0.007634	-0.003213	-0.008714	-0.534511	0.264804	0.749597	0.286848
10695		9.445519	1.284497	-2.435565	-0.002974	-0.000065	-0.009719	-0.534487	0.264821	0.749592	0.286889
10696		9.468086	1.302337	-2.415965	-0.001514	-0.004635	-0.011039	-0.534438	0.264828	0.749614	0.286917
10697		9.442327	1.313066	-2.395173	-0.001581	-0.002832	-0.010060	-0.534406	0.264839	0.749621	0.286947
10698		9.438300	1.327897	-2.462637	-0.001953	0.003710	-0.008960	-0.534390	0.264844	0.749617	0.286982
10699		9.443475	1.301694	-2.415557	0.000902	-0.003627	-0.010623	-0.534357	0.264849	0.749630	0.287005
10700		9.420532	1.285863	-2.435563	-0.000493	-0.000859	-0.010281	-0.534325	0.264852	0.749642	0.287032
10701		9.428460	1.233203	-2.429540	0.001990	-0.001654	-0.010844	-0.534302	0.264846	0.749653	0.287051
10702		9.428846	1.240437	-2.375551	0.003317	-0.002619	-0.010207	-0.534268	0.264841	0.749675	0.287062
10703		9.439362	1.325799	-2.429709	0.000727	-0.002488	-0.012458	-0.534237	0.264837	0.749687	0.287091
10704		9.488014	1.340191	-2.377094	0.001007	-0.002960	-0.007807	-0.534202	0.264848	0.749704	0.287103
10705		9.442378	1.307388	-2.416769	0.000593	0.001115	-0.010501	-0.534189	0.264841	0.749706	0.287128
10706		9.416047	1.311766	-2.450185	0.005933	-0.007013	-0.012726	-0.534138	0.264826	0.749747	0.287130
10707		9.393047	1.295980	-2.470398	0.006712	-0.000301	-0.012826	-0.534123	0.264800	0.749762	0.287140
10708		9.439733	1.317393	-2.451508	0.010523	-0.002059	-0.012752	-0.534097	0.264765	0.749796	0.287132
10709		9.458943	1.355288	-2.445177	0.004335	0.001159	-0.009448	-0.534089	0.264758	0.749801	0.287144
10710		9.436681	1.345512	-2.410688	0.003181	0.000988	-0.008248	-0.534071	0.264756	0.749810	0.287154
10711		9.437914	1.333183	-2.431293	0.003207	-0.003278	-0.013018	-0.534039	0.264747	0.749828	0.287176
10712		9.416399	1.304050	-2.471710	0.000764	-0.000019	-0.008663	-0.534013	0.264751	0.749837	0.287196
10713		9.397548	1.274079	-2.423818	0.007836	0.004142	-0.009254	-0.534022	0.264729	0.749838	0.287196
10714		9.440920	1.315532	-2.418046	0.010520	-0.002053	-0.012750	-0.533996	0.264694	0.749872	0.287187
10715		9.456697	1.373616	-2.425152	0.009298	-0.000423	-0.010572	-0.533988	0.264668	0.749891	0.287179
10716		9.459344	1.347827	-2.466305	0.007057	-0.002568	-0.009151	-0.533960	0.264656	0.749917	0.287173
10717		9.462576	1.328385	-2.453182	0.006815	0.000371	-0.010009	-0.533952	0.264639	0.749928	0.287175
10718		9.392870	1.291752	-2.492130	0.011712	0.000589	-0.010156	-0.533941	0.264607	0.749953	0.287158
10719		9.398123	1.265411	-2.445095	0.017587	0.002117	-0.013338	-0.533948	0.264548	0.749979	0.287132
10720		9.413992	1.323372	-2.451839	0.017450	0.005721	-0.011382	-0.533963	0.264489	0.750000	0.287104
10721		9.435191	1.354282	-2.411612	0.012931	-0.001036	-0.012329	-0.533954	0.264450	0.750026	0.287088
10722		9.466002	1.318283	-2.385687	0.015209	0.003578	-0.009960	-0.533959	0.264405	0.750049	0.287062
10723		9.463948	1.325845	-2.419388	0.010379	0.001558	-0.010790	-0.533958	0.264376	0.750062	0.287056
10724		9.439688	1.323081	-2.418734	0.009117	0.000722	-0.012403	-0.533942	0.264343	0.750086	0.287055
10725		9.392187	1.296957	-2.492000	0.006742	0.002177	-0.009029	-0.533941	0.264329	0.750090	0.287058
10726		9.413338	1.327879	-2.451913	0.008207	-0.002388	-0.010343	-0.533914	0.264310	0.750119	0.287051
10727		9.409775	1.348768	-2.465453	0.005657	0.000203	-0.008806	-0.533905	0.264302	0.750127	0.287053
10728		9.440613	1.312831	-2.439473	0.000760	-0.000018	-0.008659	-0.533879	0.264306	0.750136	0.287073
10729		9.444479	1.299927	-2.371842	0.002997	0.002131	-0.010080	-0.533872	0.264299	0.750137	0.287092
10730		9.445857	1.287388	-2.392081	0.003105	0.002795	-0.007268	-0.533862	0.264298	0.750140	0.287102
10731		9.463002	1.332121	-2.419644	0.011909	-0.004800	-0.013077	-0.533837	0.264263	0.750176	0.287087
10732		9.415980	1.312412	-2.439001	0.004326	0.001169	-0.009442	-0.533819	0.264253	0.750188	0.287097
10733		9.414427	1.326488	-2.418604	0.003241	-0.000806	-0.009219	-0.533804	0.264249	0.750197	0.287107
10734		9.441279	1.304353	-2.460291	-0.000325	-0.001992	-0.008436	-0.533769	0.264260	0.750210	0.287127
10735		9.416964	1.301640	-2.459828	-0.000434	-0.002656	-0.011247	-0.533738	0.264264	0.750219	0.287157
10736		9.420213	1.282470	-2.446638	-0.001655	-0.001029	-0.009073	-0.533705	0.264275	0.750228	0.287185
10737		9.420077	1.283490	-2.446625	0.002885	0.001471	-0.012890	-0.533691	0.264260	0.750233	0.287213
10738		9.411640	1.338047	-2.452904	0.003240	-0.000803	-0.009218	-0.533665	0.264256	0.750249	0.287223
10739		9.458275	1.359589	-2.434014	-0.000435	-0.002654	-0.011246	-0.533633	0.264262	0.750258	0.287254
10740		9.435949	1.350005	-2.399769	-0.000326	-0.001990	-0.008434	-0.533599	0.264272	0.750271	0.287274
10741		9.421380	1.280385	-2.413534	0.008094	-0.003039	-0.013150	-0.533575	0.264244	0.750297	0.287275
10742		9.441831	1.305151	-2.427980	0.011837	-0.002986	-0.012098	-0.533548	0.264209	0.750335	0.287259
10743		9.419474	1.295290	-2.394049	0.021804	-0.003667	-0.010552	-0.533544	0.264154	0.750380	0.287200
10744		9.417317	1.302737	-2.428126	0.019977	0.003173	-0.012911	-0.533550	0.264086	0.750413	0.287163
10745		9.415636	1.316855	-2.408170	0.025394	-0.006735	-0.016093	-0.533532	0.264005	0.750479	0.287102
10746		9.442328	1.294782	-2.450519	0.022840	-0.004145	-0.014556	-0.533511	0.263932	0.750538	0.287050
10747		9.435733	1.342226	-2.423616	0.017985	-0.001909	-0.010625	-0.533510	0.263881	0.750575	0.287005
10748		9.432053	1.363072	-2.437455	0.008267	-0.004170	-0.011308	-0.533475	0.263860	0.750609	0.286998
10749		9.412037	1.320255	-2.498504	0.007115	-0.004345	-0.010110	-0.533450	0.263847	0.750634	0.286991
10750		9.384214	1.337563	-2.511618	0.000891	-0.003616	-0.010602	-0.533408	0.263848	0.750656	0.287011
10751		9.412149	1.328575	-2.445032	-0.002742	-0.003007	-0.008845	-0.533377	0.263867	0.750660	0.287041
10752		9.403513	1.383002	-2.451847	-0.003575	-0.007920	-0.007758	-0.533317	0.263897	0.750684	0.287064
10753		9.451584	1.391182	-2.453459	-0.011407	0.000969	-0.004993	-0.533291	0.263954	0.750658	0.287126
10754		9.433752	1.341345	-2.480218	-0.008497	-0.003888	-0.002854	-0.533247	0.264010	0.750657	0.287159
10755		9.410004	1.344822	-2.425679	0.002220	-0.004573	-0.009964	-0.533215	0.264009	0.750676	0.287168
10756		9.434863	1.329369	-2.501216	0.005754	0.000883	-0.005990	-0.533203	0.264008	0.750687	0.287163
10757		9.433327	1.343106	-2.480882	0.004673	-0.001093	-0.005766	-0.533193	0.264015	0.750694	0.287158
10758		9.411113	1.333024	-2.446596	0.001110	-0.002286	-0.004982	-0.533164	0.264035	0.750706	0.287163
10759		9.417382	1.286569	-2.474351	0.006183	-0.003190	-0.003291	-0.533151	0.264047	0.750719	0.287141
10760		9.445393	1.277176	-2.407806	0.003300	-0.002595	-0.010187	-0.533117	0.264042	0.750740	0.287152
10761		9.422617	1.260720	-2.427659	0.003452	0.000531	-0.003594	-0.533113	0.264060	0.750738	0.287150
10762		9.441712	1.298252	-2.421455	0.008304	-0.001698	-0.007523	-0.533093	0.264050	0.750761	0.287136
10763		9.436576	1.332469	-2.414756	0.008082	-0.003023	-0.013142	-0.533070	0.264022	0.750788	0.287136
10764		9.417152	1.296233	-2.421563	0.003549	-0.005530	-0.009323	-0.533026	0.264023	0.750817	0.287140
10765		9.413958	1.323756	-2.381345	0.002287	-0.006370	-0.010934	-0.532983	0.264028	0.750839	0.287156
10766		9.435743	1.335162	-2.416523	0.002468	-0.007506	-0.009098	-0.532931	0.264036	0.750872	0.287160
10767		9.463025	1.319832	-2.404563	0.003325	-0.006853	-0.014941	-0.532885	0.264018	0.750904	0.287178
10768		9.437975	1.310686	-2.458822	0.006098	-0.008108	-0.010855	-0.532832	0.264010	0.750946	0.287173
10769		9.439639	1.304756	-2.426037	0.013540	-0.010451	-0.012533	-0.532787	0.263984	0.750998	0.287146
10770		9.413006	1.308967	-2.460304	0.018025	-0.010399	-0.020132	-0.532729	0.263912	0.751074	0.287119
10771		9.407600	1.343504	-2.454362	0.017029	-0.007450	-0.012343	-0.532703	0.263869	0.751124	0.287078
10772		9.403734	1.364354	-2.468685	0.017027	-0.007448	-0.012342	-0.532665	0.263825	0.751182	0.287037
10773		9.413886	1.304924	-2.429578	0.012273	-0.011283	-0.014138	-0.532616	0.263791	0.751238	0.287013
10774		9.459596	1.320260	-2.465990	0.010941	-0.010323	-0.014776	-0.532556	0.263758	0.751297	0.286998
10775		9.467700	1.267759	-2.460622	0.009721	-0.008701	-0.012605	-0.532514	0.263736	0.751340	0.286984
10776		9.412614	1.308219	-2.432732	0.005865	-0.009424	-0.016463	-0.532449	0.263709	0.751392	0.286994
10777		9.379519	1.359459	-2.439351	0.000973	-0.009664	-0.016315	-0.532388	0.263696	0.751430	0.287020
10778		9.379936	1.340964	-2.514749	-0.006285	-0.008464	-0.012799	-0.532316	0.263714	0.751457	0.287066
10779		9.426366	1.363119	-2.496376	-0.016024	-0.006487	-0.008724	-0.532254	0.263771	0.751453	0.287139
10780		9.406972	1.327147	-2.503069	-0.019584	-0.007684	-0.007937	-0.532174	0.263843	0.751452	0.287222
10781		9.402505	1.341879	-2.571082	-0.017175	-0.006662	-0.007524	-0.532112	0.263909	0.751446	0.287296
10782		9.400818	1.356316	-2.550936	-0.019726	-0.004084	-0.005991	-0.532048	0.263984	0.751433	0.287379
10783		9.416146	1.414681	-2.558257	-0.014766	-0.005639	-0.007111	-0.531990	0.264048	0.751424	0.287448
10784		9.420970	1.382251	-2.565437	-0.013757	-0.001863	-0.006365	-0.531942	0.264103	0.751414	0.287513
10785		9.374745	1.368817	-2.530072	-0.013827	-0.000065	-0.005392	-0.531912	0.264159	0.751392	0.287576
10786		9.424438	1.363718	-2.551544	-0.009144	0.005569	-0.002625	-0.531903	0.264205	0.751364	0.287623
10787		9.426663	1.357307	-2.517078	-0.007881	0.006408	-0.001015	-0.531910	0.264254	0.751327	0.287661
10788		9.430345	1.337490	-2.503081	-0.008960	0.004432	-0.000789	-0.531900	0.264308	0.751300	0.287701
10789		9.383728	1.316928	-2.521353	-0.010363	0.007188	-0.000453	-0.531908	0.264362	0.751258	0.287747
10790		9.389535	1.290378	-2.473407	-0.002024	0.007968	-0.004197	-0.531915	0.264380	0.751236	0.287774
10791		9.436430	1.311775	-2.453620	-0.002209	0.009107	-0.006031	-0.531935	0.264388	0.751207	0.287805
10792		9.406804	1.335274	-2.499376	0.000825	0.004913	-0.001087	-0.531938	0.264414	0.751194	0.287810
10793		9.426038	1.372750	-2.492334	-0.006988	0.009526	-0.003074	-0.531955	0.264450	0.751152	0.287856
10794		9.405694	1.349409	-2.477141	-0.009654	0.011444	-0.004348	-0.531965	0.264483	0.751110	0.287916
10795		9.386313	1.306193	-2.536301	-0.012094	0.014680	-0.000006	-0.532001	0.264533	0.751044	0.287976
10796		9.409311	1.323493	-2.515115	-0.011911	0.013543	0.001830	-0.532024	0.264593	0.750985	0.288031
10797		9.408201	1.336965	-2.493209	-0.013245	0.014503	0.001194	-0.532058	0.264653	0.750917	0.288092
10798		9.422576	1.407897	-2.478364	-0.015586	0.011689	-0.000192	-0.532067	0.264717	0.750860	0.288164
10799		9.409386	1.344183	-2.436269	-0.014438	0.011871	-0.001389	-0.532088	0.264770	0.750801	0.288230
10800		9.438874	1.314890	-2.442528	-0.012170	0.016486	0.000973	-0.532121	0.264824	0.750735	0.288292
10801		9.439208	1.315267	-2.441033	-0.007246	0.012473	-0.003930	-0.532150	0.264850	0.750687	0.288341
10802		9.441015	1.302438	-2.460018	-0.007390	0.016070	-0.001981	-0.532183	0.264880	0.750632	0.288393
10803		9.412177	1.332388	-2.450885	-0.002170	0.011573	-0.002242	-0.532216	0.264901	0.750592	0.288419
10804		9.442100	1.309506	-2.403354	-0.004581	0.010556	-0.002655	-0.532232	0.264928	0.750557	0.288455
10805		9.414709	1.326164	-2.414846	-0.001092	0.013553	-0.002464	-0.532273	0.264944	0.750512	0.288481
10806		9.416448	1.313183	-2.434209	0.000384	0.008997	-0.003775	-0.532288	0.264955	0.750491	0.288499
10807		9.444273	1.297177	-2.420659	0.003945	0.010197	-0.004558	-0.532320	0.264955	0.750464	0.288509
10808		9.423903	1.273714	-2.405594	0.012034	0.013918	-0.009152	-0.532362	0.264908	0.750453	0.288505
10809		9.413526	1.334533	-2.444530	0.014627	0.013798	-0.006903	-0.532420	0.264861	0.750437	0.288482
10810		9.413710	1.334880	-2.443630	0.010060	0.008822	-0.006872	-0.532442	0.264835	0.750434	0.288473
10811		9.439425	1.325822	-2.464163	0.012615	0.006245	-0.008405	-0.532466	0.264802	0.750436	0.288456
10812		9.441046	1.312961	-2.483989	0.013619	0.010025	-0.007653	-0.532496	0.264761	0.750435	0.288437
10813		9.415582	1.322791	-2.462073	0.019588	0.012248	-0.008018	-0.532551	0.264707	0.750429	0.288403
10814		9.457351	1.377379	-2.435190	0.020993	0.009492	-0.008352	-0.532588	0.264645	0.750442	0.288358
10815		9.431406	1.380493	-2.467626	0.017468	0.010750	-0.003789	-0.532642	0.264608	0.750434	0.288313
10816		9.436683	1.347083	-2.473878	0.019767	0.011115	-0.006180	-0.532687	0.264555	0.750437	0.288269
10817		9.368145	1.315486	-2.457620	0.019801	0.013575	-0.002398	-0.532756	0.264513	0.750423	0.288216
10818		9.418139	1.309684	-2.478490	0.022246	0.010342	-0.006734	-0.532801	0.264453	0.750434	0.288163
10819		9.435415	1.353690	-2.505030	0.019614	0.014721	-0.004230	-0.532872	0.264403	0.750418	0.288117
10820		9.415103	1.329687	-2.490047	0.023502	0.011189	-0.005119	-0.532923	0.264344	0.750426	0.288056
10821		9.415799	1.336019	-2.434943	0.022202	0.014610	-0.001977	-0.533000	0.264296	0.750412	0.287994
10822		9.438226	1.346368	-2.468375	0.018533	0.012748	-0.004004	-0.533052	0.264253	0.750407	0.287950
10823		9.419425	1.309135	-2.473888	0.022238	0.010355	-0.006726	-0.533106	0.264193	0.750410	0.287896
10824		9.449180	1.286156	-2.426710	0.020012	0.008194	-0.005307	-0.533141	0.264147	0.750421	0.287845
10825		9.418205	1.322566	-2.452139	0.024384	0.014325	-0.007169	-0.533213	0.264074	0.750417	0.287789
10826		9.442564	1.326419	-2.451785	0.019676	0.012940	-0.005195	-0.533266	0.264023	0.750415	0.287744
10827		9.446651	1.313033	-2.383463	0.017600	0.007176	-0.005720	-0.533304	0.263983	0.750419	0.287700
10828		9.446769	1.313152	-2.382930	0.018673	0.009161	-0.005942	-0.533340	0.263936	0.750426	0.287657
10829		9.448466	1.299907	-2.402767	0.017598	0.007179	-0.005718	-0.533376	0.263898	0.750430	0.287614
10830		9.447012	1.313435	-2.381809	0.017338	0.010122	-0.006581	-0.533414	0.263852	0.750434	0.287579
10831		9.421081	1.316611	-2.414348	0.018562	0.008504	-0.008746	-0.533454	0.263794	0.750440	0.287539
10832		9.426293	1.283417	-2.420758	0.017594	0.007185	-0.005715	-0.533482	0.263754	0.750451	0.287497
10833		9.421193	1.317140	-2.413623	0.022525	0.003174	-0.010596	-0.533502	0.263693	0.750477	0.287447
10834		9.443349	1.328147	-2.447823	0.017301	0.007665	-0.010355	-0.533525	0.263635	0.750492	0.287419
10835		9.443388	1.328477	-2.447493	0.018998	0.004433	-0.006041	-0.533554	0.263594	0.750505	0.287367
10836		9.427953	1.271482	-2.440089	0.018707	0.004910	-0.010682	-0.533568	0.263535	0.750530	0.287331
10837		9.421227	1.318866	-2.412550	0.019778	0.006897	-0.010905	-0.533600	0.263471	0.750544	0.287294
10838		9.420883	1.312627	-2.466474	0.020036	0.003959	-0.010037	-0.533613	0.263413	0.750572	0.287250
10839		9.440156	1.357118	-2.405903	0.017553	0.004734	-0.009485	-0.533635	0.263365	0.750586	0.287216
10840		9.422844	1.306869	-2.432077	0.012514	0.008083	-0.007413	-0.533657	0.263331	0.750589	0.287198
10841		9.417725	1.340794	-2.424849	0.015147	0.003707	-0.009902	-0.533671	0.263290	0.750603	0.287173
10842		9.443406	1.331707	-2.445668	0.012849	0.003342	-0.007515	-0.533676	0.263262	0.750619	0.287149
10843		9.417697	1.341669	-2.424476	0.013920	0.005329	-0.007738	-0.533698	0.263227	0.750625	0.287123
10844		9.443438	1.332490	-2.445119	0.013919	0.005330	-0.007738	-0.533711	0.263192	0.750638	0.287097
10845		9.422914	1.308961	-2.430681	0.012770	0.005148	-0.006544	-0.533734	0.263166	0.750641	0.287071
10846		9.469274	1.323567	-2.465265	0.014912	0.009122	-0.006992	-0.533763	0.263126	0.750644	0.287045
10847		9.417628	1.336290	-2.476930	0.010104	0.007059	-0.007830	-0.533787	0.263102	0.750639	0.287037
10848		9.419576	1.330038	-2.442813	0.013029	0.002211	-0.005674	-0.533790	0.263081	0.750656	0.287005
10849		9.421294	1.316880	-2.462633	0.007467	0.011438	-0.005343	-0.533830	0.263067	0.750633	0.287005
10850		9.475070	1.298240	-2.415956	0.010548	0.002983	-0.005124	-0.533833	0.263054	0.750644	0.286982
10851		9.449343	1.308178	-2.394815	0.011512	0.004305	-0.008153	-0.533849	0.263025	0.750650	0.286963
10852		9.430157	1.264530	-2.454805	0.006550	0.005846	-0.007055	-0.533855	0.263012	0.750650	0.286964
10853		9.425032	1.298431	-2.447552	0.011433	0.006110	-0.007184	-0.533879	0.262986	0.750649	0.286946
10854		9.419894	1.332287	-2.440360	0.007882	0.004894	-0.006411	-0.533884	0.262973	0.750653	0.286939
10855		9.416328	1.352849	-2.453643	0.006705	0.002241	-0.008991	-0.533883	0.262959	0.750657	0.286940
10856		9.421842	1.326684	-2.405853	0.000546	0.007869	-0.001961	-0.533896	0.262979	0.750637	0.286952
10857		9.423505	1.313500	-2.425938	0.006003	-0.002021	-0.005093	-0.533884	0.262986	0.750648	0.286939
10858		9.449218	1.304393	-2.446713	0.005216	0.006803	-0.007698	-0.533892	0.262972	0.750644	0.286947
10859		9.447378	1.311434	-2.480036	0.004252	0.005481	-0.004669	-0.533906	0.262979	0.750631	0.286950
10860		9.401136	1.297508	-2.444601	0.004330	0.003678	-0.005637	-0.533903	0.262980	0.750631	0.286953
10861		9.401166	1.297937	-2.444260	0.001849	0.004448	-0.005089	-0.533909	0.262991	0.750618	0.286964
10862		9.423921	1.322563	-2.369982	-0.004182	0.003998	-0.003770	-0.533899	0.263022	0.750604	0.286994
10863		9.472139	1.330761	-2.370847	-0.005252	0.002010	-0.003546	-0.533890	0.263059	0.750586	0.287022
10864		9.460360	1.253834	-2.349723	-0.006400	0.001826	-0.002354	-0.533871	0.263104	0.750572	0.287053
10865		9.435984	1.243603	-2.403106	-0.004025	0.000392	-0.005706	-0.533854	0.263134	0.750563	0.287083
10866		9.458376	1.261763	-2.383159	0.000304	0.004072	-0.011342	-0.533840	0.263124	0.750563	0.287116
10867		9.419999	1.338910	-2.436328	0.000488	0.002934	-0.009505	-0.533831	0.263128	0.750557	0.287145
10868		9.442140	1.350116	-2.470557	-0.000475	0.001611	-0.006477	-0.533814	0.263141	0.750557	0.287165
10869		9.418019	1.346856	-2.469711	0.000594	0.003600	-0.006701	-0.533813	0.263150	0.750547	0.287184
10870		9.443737	1.338006	-2.490381	0.001821	0.001982	-0.008860	-0.533796	0.263148	0.750553	0.287202
10871		9.445595	1.332078	-2.456365	0.007957	0.003099	-0.007374	-0.533803	0.263135	0.750556	0.287194
10872		9.419872	1.342184	-2.435018	0.002731	0.007578	-0.007148	-0.533811	0.263129	0.750545	0.287211
10873		9.443941	1.346627	-2.435411	0.008300	-0.001645	-0.007473	-0.533801	0.263120	0.750562	0.287196
10874		9.426965	1.303142	-2.407569	0.005316	0.007475	-0.004891	-0.533814	0.263116	0.750553	0.287198
10875		9.451120	1.307455	-2.407702	0.005475	0.003869	-0.006826	-0.533821	0.263114	0.750548	0.287201
10876		9.428670	1.290678	-2.427209	0.005554	0.002066	-0.007794	-0.533811	0.263105	0.750558	0.287202
10877		9.432200	1.271278	-2.413500	0.003073	0.002834	-0.007247	-0.533808	0.263111	0.750552	0.287216
10878		9.406208	1.274549	-2.446434	0.004141	0.004823	-0.007470	-0.533807	0.263104	0.750552	0.287225
10879		9.445728	1.343554	-2.400063	0.001793	-0.000485	-0.012630	-0.533787	0.263091	0.750562	0.287248
10880		9.438502	1.384357	-2.427004	-0.001704	0.003230	-0.004317	-0.533776	0.263114	0.750554	0.287269
10881		9.421371	1.334054	-2.453079	0.000511	0.005405	-0.005732	-0.533785	0.263122	0.750538	0.287285
10882		9.432131	1.274625	-2.412004	-0.001890	0.004369	-0.006153	-0.533776	0.263137	0.750529	0.287313
10883		9.430197	1.281841	-2.445655	0.005633	0.000265	-0.008760	-0.533766	0.263132	0.750536	0.287317
10884		9.448939	1.319886	-2.439469	0.003152	0.001033	-0.008213	-0.533748	0.263130	0.750546	0.287327
10885		9.422911	1.323191	-2.472529	0.000590	0.003603	-0.006699	-0.533747	0.263140	0.750535	0.287347
10886		9.428343	1.297216	-2.424990	-0.002692	-0.000562	-0.005060	-0.533720	0.263168	0.750536	0.287368
10887		9.426428	1.304314	-2.458627	-0.003039	0.004184	-0.004961	-0.533720	0.263190	0.750518	0.287395
10888		9.450663	1.315917	-2.404881	0.000645	-0.000667	-0.011437	-0.533689	0.263185	0.750532	0.287421
10889		9.424623	1.319355	-2.437921	0.000509	0.005407	-0.005731	-0.533697	0.263197	0.750516	0.287440
10890		9.402195	1.302744	-2.457340	0.000564	0.001137	-0.010469	-0.533673	0.263193	0.750524	0.287467
10891		9.424493	1.320982	-2.437540	0.004298	0.001222	-0.009403	-0.533665	0.263185	0.750529	0.287476
10892		9.450352	1.319230	-2.404291	-0.000503	-0.000852	-0.010245	-0.533632	0.263188	0.750540	0.287503
10893		9.452137	1.313573	-2.370382	-0.004213	0.001530	-0.007540	-0.533617	0.263209	0.750530	0.287539
10894		9.434903	1.263619	-2.396901	-0.002718	-0.003028	-0.008830	-0.533575	0.263226	0.750543	0.287568
10895		9.434763	1.264513	-2.396978	-0.000585	0.000952	-0.009277	-0.533561	0.263232	0.750541	0.287594
10896		9.447930	1.329498	-2.438159	0.002938	-0.000289	-0.013817	-0.533530	0.263211	0.750560	0.287619
10897		9.418381	1.360014	-2.430888	0.003230	-0.000764	-0.009178	-0.533514	0.263209	0.750569	0.287629
10898		9.419906	1.347455	-2.451378	-0.001571	-0.002840	-0.010020	-0.533473	0.263218	0.750584	0.287657
10899		9.447470	1.332289	-2.438420	-0.000667	0.002757	-0.008309	-0.533464	0.263230	0.750575	0.287687
10900		9.445475	1.339691	-2.472169	-0.001653	-0.001036	-0.009053	-0.533431	0.263240	0.750584	0.287715
10901		9.426557	1.303254	-2.478375	-0.002987	-0.000084	-0.009697	-0.533409	0.263250	0.750583	0.287748
10902		9.426584	1.311167	-2.424326	-0.000425	-0.002650	-0.011210	-0.533369	0.263251	0.750601	0.287776
10903		9.428345	1.305594	-2.390502	-0.003069	0.001720	-0.008729	-0.533354	0.263266	0.750593	0.287811
10904		9.441521	1.370470	-2.431492	-0.001922	0.001908	-0.009920	-0.533330	0.263270	0.750595	0.287846
10905		9.450316	1.318081	-2.424682	-0.008936	-0.002347	-0.009348	-0.533291	0.263305	0.750589	0.287901
10906		9.429645	1.295257	-2.410733	0.000721	-0.002459	-0.012400	-0.533251	0.263298	0.750610	0.287928
10907		9.427573	1.302932	-2.444629	-0.004324	0.000871	-0.010340	-0.533229	0.263311	0.750604	0.287972
10908		9.446171	1.341534	-2.438381	-0.001949	-0.000553	-0.013688	-0.533191	0.263305	0.750617	0.288015
10909		9.392520	1.368153	-2.430386	-0.000590	0.000959	-0.009274	-0.533176	0.263310	0.750616	0.288041
10910		9.427123	1.306321	-2.444555	-0.000615	-0.001504	-0.013043	-0.533137	0.263303	0.750632	0.288075
10911		9.426884	1.307741	-2.444718	0.000424	-0.001975	-0.017035	-0.533102	0.263280	0.750650	0.288115
10912		9.447324	1.339864	-2.404780	0.003037	0.000387	-0.011010	-0.533078	0.263269	0.750664	0.288133
10913		9.443421	1.354090	-2.472171	-0.002386	0.005997	-0.012620	-0.533075	0.263262	0.750650	0.288182
10914		9.426453	1.311282	-2.444481	0.000990	-0.005397	-0.011530	-0.533025	0.263262	0.750678	0.288202
10915		9.394905	1.348392	-2.471110	0.000365	0.002293	-0.012298	-0.533012	0.263253	0.750678	0.288235
10916		9.368801	1.352023	-2.504210	0.000554	0.001152	-0.010463	-0.532988	0.263249	0.750686	0.288261
10917		9.444708	1.351929	-2.438306	-0.001764	-0.001689	-0.011850	-0.532958	0.263253	0.750692	0.288297
10918		9.468620	1.356995	-2.438946	-0.002993	-0.000077	-0.009693	-0.532926	0.263264	0.750698	0.288333
10919		9.451728	1.313964	-2.411177	-0.003075	0.001725	-0.008726	-0.532910	0.263280	0.750689	0.288370
10920		9.399783	1.327117	-2.423458	0.005220	0.000113	-0.016190	-0.532881	0.263243	0.750713	0.288393
10921		9.447719	1.336386	-2.424785	0.000717	-0.002448	-0.012395	-0.532850	0.263239	0.750727	0.288419
10922		9.421545	1.340090	-2.458107	0.002844	0.001536	-0.012841	-0.532828	0.263219	0.750740	0.288443
10923		9.421401	1.341094	-2.458109	0.004369	-0.000557	-0.010363	-0.532811	0.263212	0.750751	0.288454
10924		9.415869	1.375425	-2.451354	0.006578	0.001627	-0.011776	-0.532795	0.263186	0.750768	0.288462
10925		9.400764	1.318922	-2.443840	0.000468	0.002958	-0.009494	-0.532788	0.263187	0.750762	0.288488
10926		9.419359	1.357238	-2.437467	-0.000596	0.000966	-0.009270	-0.532764	0.263191	0.750767	0.288515
10927		9.394978	1.347274	-2.491020	-0.000513	-0.000835	-0.010237	-0.532741	0.263196	0.750772	0.288541
10928		9.443163	1.363215	-2.438007	-0.004332	0.000877	-0.010335	-0.532710	0.263206	0.750774	0.288585
10929		9.424378	1.326735	-2.444146	-0.008832	-0.001689	-0.006541	-0.532677	0.263251	0.750763	0.288634
10930		9.453951	1.305301	-2.397114	-0.004797	0.004965	-0.013035	-0.532657	0.263247	0.750756	0.288692
10931		9.427850	1.308962	-2.430177	-0.005205	-0.002257	-0.008277	-0.532625	0.263274	0.750755	0.288729
10932		9.431371	1.289963	-2.416702	-0.001851	0.000120	-0.010880	-0.532593	0.263277	0.750763	0.288765
10933		9.427551	1.311117	-2.430176	-0.005587	0.000030	-0.011944	-0.532565	0.263288	0.750760	0.288815
10934		9.421957	1.345747	-2.423366	-0.004251	-0.000920	-0.011300	-0.532526	0.263297	0.750767	0.288859
10935		9.467998	1.361457	-2.458467	-0.004060	-0.002063	-0.009466	-0.532494	0.263316	0.750769	0.288896
10936		9.421462	1.341143	-2.477534	-0.009409	0.001743	-0.012040	-0.532457	0.263333	0.750762	0.288965
10937		9.447273	1.339639	-2.444435	0.008461	-0.005200	-0.009396	-0.532430	0.263322	0.750791	0.288950
10938		9.423154	1.343364	-2.390042	0.007802	0.000032	-0.013929	-0.532407	0.263287	0.750817	0.288957
10939		9.448803	1.335066	-2.411048	0.006656	-0.000159	-0.012739	-0.532392	0.263263	0.750833	0.288965
10940		9.443165	1.369464	-2.404441	0.014019	-0.000633	-0.013409	-0.532375	0.263214	0.750869	0.288947
10941		9.415062	1.379309	-2.471762	0.014126	0.000026	-0.010608	-0.532373	0.263180	0.750892	0.288923
10942		9.396270	1.342545	-2.478257	0.010666	-0.003009	-0.010805	-0.532346	0.263153	0.750926	0.288908
10943		9.394297	1.356812	-2.458286	0.014016	-0.000628	-0.013407	-0.532338	0.263105	0.750956	0.288888
10944		9.434877	1.405481	-2.486794	0.015569	-0.000262	-0.007163	-0.532333	0.263075	0.750986	0.288848
10945		9.466115	1.370060	-2.460938	0.018386	-0.008220	-0.011571	-0.532304	0.263035	0.751039	0.288800
10946		9.419663	1.356100	-2.426507	0.015265	0.000227	-0.011795	-0.532294	0.262988	0.751072	0.288774
10947		9.423184	1.336730	-2.413356	0.021758	-0.003377	-0.010406	-0.532290	0.262935	0.751117	0.288715
10948		9.424886	1.330855	-2.380090	0.020310	-0.003082	-0.013849	-0.532271	0.262871	0.751169	0.288672
10949		9.422717	1.338004	-2.414474	0.019273	-0.002616	-0.009859	-0.532268	0.262826	0.751207	0.288621
10950		9.402132	1.314530	-2.400934	0.016959	-0.005459	-0.011243	-0.532239	0.262784	0.751258	0.288580
10951		9.427701	1.305798	-2.422511	0.014476	-0.004703	-0.010698	-0.532220	0.262752	0.751295	0.288548
10952		9.451667	1.317746	-2.369563	0.008150	-0.004702	-0.014016	-0.532179	0.262723	0.751334	0.288549
10953		9.460494	1.402630	-2.425193	0.008621	-0.008786	-0.011312	-0.532136	0.262709	0.751374	0.288534
10954		9.413839	1.381822	-2.444970	0.001093	-0.004723	-0.008714	-0.532093	0.262718	0.751397	0.288546
10955		9.387578	1.384977	-2.478711	-0.003592	-0.006157	-0.006755	-0.532050	0.262751	0.751407	0.288568
10956		9.440933	1.360506	-2.487266	-0.003508	-0.007957	-0.007719	-0.531990	0.262781	0.751430	0.288591
10957		9.418417	1.343717	-2.507385	-0.001474	-0.002167	-0.007205	-0.531965	0.262802	0.751433	0.288612
10958		9.440489	1.361887	-2.488194	0.005105	-0.007565	-0.006780	-0.531919	0.262812	0.751467	0.288600
10959		9.421873	1.331969	-2.440831	0.002429	-0.005668	-0.008069	-0.531883	0.262825	0.751486	0.288605
10960		9.443968	1.350044	-2.421629	0.008476	-0.002723	-0.005621	-0.531862	0.262823	0.751510	0.288584
10961		9.441970	1.363830	-2.402046	0.013801	-0.008970	-0.006803	-0.531831	0.262815	0.751552	0.288538
10962		9.441715	1.364335	-2.402761	0.003487	-0.003673	-0.008293	-0.531795	0.262818	0.751574	0.288542
10963		9.424698	1.314093	-2.429701	0.002512	-0.007467	-0.009031	-0.531751	0.262829	0.751599	0.288547
10964		9.426172	1.301358	-2.450739	0.007389	-0.007172	-0.009156	-0.531707	0.262823	0.751638	0.288534
10965		9.427869	1.295619	-2.417600	0.006050	-0.006224	-0.009801	-0.531672	0.262820	0.751666	0.288529
10966		9.403498	1.292287	-2.417776	0.007472	-0.008969	-0.010119	-0.531619	0.262813	0.751711	0.288516
10967		9.438193	1.374619	-2.440460	0.005075	-0.010016	-0.010537	-0.531569	0.262812	0.751749	0.288510
10968		9.406260	1.411225	-2.467839	-0.003510	-0.007955	-0.007713	-0.531509	0.262842	0.751772	0.288533
10969		9.418973	1.338924	-2.448208	-0.003539	-0.010411	-0.011473	-0.531444	0.262863	0.751800	0.288561
10970		9.398251	1.315849	-2.435143	0.001814	-0.014197	-0.008894	-0.531366	0.262882	0.751849	0.288560
10971		9.396059	1.330206	-2.416026	0.000195	-0.010308	-0.010409	-0.531307	0.262897	0.751880	0.288573
10972		9.465821	1.350062	-2.452764	-0.004683	-0.010604	-0.010281	-0.531232	0.262924	0.751912	0.288604
10973		9.413514	1.362888	-2.466019	-0.007081	-0.011651	-0.010698	-0.531158	0.262960	0.751936	0.288643
10974		9.396338	1.313105	-2.493369	-0.005940	-0.011453	-0.011887	-0.531076	0.262985	0.751970	0.288682
10975		9.421703	1.304894	-2.515411	-0.004405	-0.013541	-0.009409	-0.531001	0.263021	0.752003	0.288704
10976		9.397453	1.308888	-2.461778	-0.003461	-0.012201	-0.012432	-0.530918	0.263038	0.752043	0.288735
10977		9.430205	1.405120	-2.464233	-0.003545	-0.010402	-0.011468	-0.530853	0.263060	0.752071	0.288764
10978		9.437142	1.359461	-2.492033	-0.003827	-0.007460	-0.012339	-0.530788	0.263072	0.752098	0.288801
10979		9.403308	1.409869	-2.499112	0.001414	-0.011899	-0.012560	-0.530723	0.263078	0.752138	0.288812
10980		9.428674	1.401648	-2.521116	0.001330	-0.010100	-0.011596	-0.530656	0.263083	0.752178	0.288825
10981		9.378117	1.400891	-2.554556	-0.001151	-0.009350	-0.011049	-0.530598	0.263098	0.752206	0.288845
10982		9.409132	1.359145	-2.583066	0.000104	-0.008498	-0.009443	-0.530539	0.263112	0.752238	0.288858
10983		9.410859	1.353655	-2.549908	-0.002575	-0.006605	-0.010730	-0.530490	0.263128	0.752256	0.288886
10984		9.412642	1.348172	-2.516559	-0.003800	-0.005005	-0.008577	-0.530440	0.263151	0.752272	0.288916
10985		9.433000	1.380074	-2.476848	-0.006448	-0.000662	-0.006105	-0.530415	0.263188	0.752262	0.288954
10986		9.404920	1.396827	-2.489978	-0.013472	-0.007399	-0.009277	-0.530342	0.263238	0.752271	0.289019
10987		9.438140	1.348617	-2.484208	-0.005025	-0.003403	-0.006423	-0.530308	0.263274	0.752270	0.289050
10988		9.415638	1.331823	-2.504200	-0.007339	-0.006247	-0.007802	-0.530249	0.263312	0.752283	0.289089
10989		9.411854	1.359642	-2.464118	-0.001321	-0.005750	-0.009123	-0.530208	0.263330	0.752299	0.289109
10990		9.431780	1.384676	-2.478923	0.002300	-0.006300	-0.010860	-0.530157	0.263330	0.752330	0.289121
10991		9.403635	1.401409	-2.492253	0.004414	-0.002311	-0.011315	-0.530133	0.263320	0.752346	0.289130
10992		9.431022	1.379443	-2.533769	0.003389	-0.001856	-0.007329	-0.530106	0.263325	0.752363	0.289134
10993		9.405084	1.389374	-2.512931	0.005586	0.000337	-0.008746	-0.530096	0.263319	0.752371	0.289137
10994		9.368060	1.314981	-2.525192	-0.003886	-0.003205	-0.007612	-0.530053	0.263344	0.752380	0.289166
10995		9.423599	1.284333	-2.499889	0.008317	-0.005798	-0.012180	-0.530019	0.263325	0.752413	0.289160
10996		9.390146	1.341412	-2.452406	0.006892	-0.003055	-0.011861	-0.529986	0.263305	0.752444	0.289161
10997		9.414245	1.353625	-2.399392	0.002098	-0.005153	-0.012690	-0.529946	0.263301	0.752466	0.289180
10998		9.436244	1.372378	-2.380248	-0.001523	-0.004604	-0.010953	-0.529897	0.263309	0.752487	0.289208
10999		9.465594	1.344384	-2.388232	-0.006233	-0.008497	-0.012745	-0.529834	0.263329	0.752507	0.289252
11000		9.424545	1.290368	-2.414629	-0.003637	-0.008591	-0.010496	-0.529767	0.263349	0.752535	0.289283
11001		9.399799	1.280467	-2.468849	0.008079	-0.007094	-0.017769	-0.529721	0.263311	0.752578	0.289290
11002		9.401510	1.275382	-2.435774	0.005799	-0.007490	-0.015388	-0.529664	0.263286	0.752623	0.289299
11003		9.431851	1.378381	-2.472174	0.018082	-0.011867	-0.020919	-0.529608	0.263217	0.752697	0.289272
11004		9.429547	1.393433	-2.453043	0.009298	-0.008684	-0.019918	-0.529546	0.263167	0.752756	0.289280
11005		9.436474	1.348180	-2.481056	0.010637	-0.009625	-0.019274	-0.529492	0.263119	0.752812	0.289278
11006		9.417592	1.312157	-2.488139	0.017790	-0.008916	-0.021786	-0.529437	0.263040	0.752886	0.289258
11007		9.422412	1.273431	-2.549971	0.021119	-0.006517	-0.024393	-0.529400	0.262942	0.752954	0.289236
11008		9.384681	1.351391	-2.516706	0.022506	-0.011696	-0.028463	-0.529332	0.262829	0.753050	0.289214
11009		9.400583	1.404572	-2.491825	0.015350	-0.012401	-0.025946	-0.529263	0.262749	0.753127	0.289211
11010		9.368488	1.449146	-2.465278	0.005549	-0.008778	-0.020964	-0.529193	0.262706	0.753182	0.289235
11011		9.370118	1.444713	-2.432210	-0.011558	-0.008967	-0.020014	-0.529112	0.262715	0.753204	0.289319
11012		9.366929	1.329694	-2.384772	-0.014925	-0.013806	-0.021156	-0.528996	0.262732	0.753243	0.289414
11013		9.331694	1.250630	-2.364393	-0.018246	-0.022880	-0.027010	-0.528844	0.262751	0.753301	0.289524
11014		9.386287	1.215558	-2.394914	-0.012395	-0.025451	-0.034877	-0.528669	0.262725	0.753391	0.289633
11015		9.331450	1.127546	-2.253087	-0.006174	-0.032747	-0.042832	-0.528473	0.262665	0.753513	0.289729
11016		9.351657	1.019062	-2.209183	-0.000844	-0.045614	-0.052473	-0.528212	0.262569	0.753695	0.289817
11017		9.358897	0.998569	-2.078239	0.008607	-0.048694	-0.062073	-0.527948	0.262416	0.753905	0.289889
11018		9.401150	1.033169	-2.098387	0.020695	-0.056079	-0.074137	-0.527646	0.262194	0.754173	0.289943
11019		9.539317	1.085997	-2.121643	0.030132	-0.044745	-0.084661	-0.527394	0.261896	0.754430	0.290003
11020		9.547919	1.178302	-2.093630	0.043376	-0.049451	-0.094156	-0.527119	0.261529	0.754737	0.290034
11021		9.466746	1.323329	-2.226610	0.045099	-0.059275	-0.098273	-0.526813	0.261157	0.755071	0.290056
11022		9.407786	1.327944	-2.441688	0.038797	-0.075400	-0.101536	-0.526423	0.260809	0.755449	0.290092
11023		9.310082	1.436167	-2.494497	0.024429	-0.079250	-0.100190	-0.526011	0.260513	0.755808	0.290173
11024		9.286961	1.523489	-2.644447	0.008768	-0.079747	-0.095739	-0.525573	0.260273	0.756146	0.290300
11025		9.346929	1.585282	-2.681819	-0.000801	-0.081496	-0.093578	-0.525129	0.260070	0.756466	0.290453
11026		9.326401	1.673225	-2.743597	-0.007920	-0.079768	-0.087274	-0.524680	0.259906	0.756769	0.290620
11027		9.457833	1.740396	-2.836555	-0.028927	-0.059118	-0.063818	-0.524326	0.259861	0.756952	0.290825
11028		9.415105	1.938725	-2.942856	-0.042071	-0.049581	-0.046796	-0.524004	0.259901	0.757075	0.291047
11029		9.321935	2.023509	-2.977813	-0.074947	-0.057032	-0.033755	-0.523638	0.260091	0.757148	0.291348
11030		9.336245	1.776811	-3.136513	-0.093135	-0.065227	-0.022123	-0.523224	0.260381	0.757208	0.291677
11031		9.243671	1.502962	-2.992743	-0.098365	-0.052433	-0.028453	-0.522853	0.260644	0.757227	0.292054
11032		9.227583	1.360230	-2.811831	-0.070351	-0.048795	-0.027255	-0.522524	0.260832	0.757283	0.292331
11033		9.384996	1.463484	-2.720615	-0.039082	-0.045168	-0.032441	-0.522250	0.260917	0.757374	0.292508
11034		9.357411	1.614184	-2.676023	-0.042267	-0.036795	-0.032657	-0.521996	0.260994	0.757446	0.292709
11035		9.328661	1.640099	-2.636848	-0.051532	-0.033167	-0.020225	-0.521769	0.261140	0.757472	0.292914
11036		9.302850	1.494217	-2.719083	-0.047632	-0.036581	-0.021103	-0.521524	0.261274	0.757521	0.293103
11037		9.304632	1.353361	-2.714510	-0.042172	-0.031935	-0.025155	-0.521308	0.261375	0.757564	0.293287
11038		9.341623	1.398991	-2.799804	-0.029204	-0.027053	-0.027161	-0.521115	0.261424	0.757623	0.293436
11039		9.332063	1.559358	-2.876309	-0.015936	-0.020930	-0.023604	-0.520975	0.261449	0.757673	0.293532
11040		9.282352	1.663661	-2.977966	-0.018260	-0.023754	-0.024951	-0.520812	0.261474	0.757736	0.293638
11041		9.261541	1.524394	-2.917645	-0.018344	-0.021974	-0.023991	-0.520665	0.261503	0.757786	0.293742
11042		9.271248	1.473871	-2.912464	-0.014324	-0.010458	-0.023026	-0.520560	0.261506	0.757818	0.293844
11043		9.349096	1.601370	-2.842161	-0.004875	-0.006855	-0.024240	-0.520489	0.261476	0.757849	0.293914
11044		9.386947	1.672598	-2.797021	-0.000821	-0.005493	-0.017652	-0.520428	0.261458	0.757881	0.293957
11045		9.334306	1.684619	-2.808580	-0.002036	0.000230	-0.010802	-0.520405	0.261464	0.757881	0.293992
11046		9.363231	1.650262	-2.870592	-0.009247	0.001230	-0.007279	-0.520373	0.261498	0.757870	0.294047
11047		9.315251	1.524431	-2.820401	-0.018044	0.004321	-0.006210	-0.520352	0.261555	0.757832	0.294132
11048		9.247140	1.511859	-2.728800	-0.019240	0.001712	-0.008754	-0.520307	0.261609	0.757806	0.294229
11049		9.296877	1.508710	-2.750291	-0.014691	0.013308	-0.000399	-0.520332	0.261672	0.757740	0.294301
11050		9.339611	1.413812	-2.771034	-0.006869	0.010619	0.002511	-0.520353	0.261724	0.757695	0.294332
11051		9.282769	1.182455	-2.828163	0.002432	0.013602	-0.001486	-0.520399	0.261736	0.757655	0.294342
11052		9.226584	1.122184	-2.675436	0.022931	0.014552	-0.006158	-0.520462	0.261671	0.757655	0.294289
11053		9.215229	1.051234	-2.687332	0.045296	0.016480	-0.017821	-0.520553	0.261503	0.757692	0.294184
11054		9.216799	1.320541	-2.598684	0.054356	0.020635	-0.023633	-0.520655	0.261280	0.757744	0.294068
11055		9.324490	1.645682	-2.684315	0.046933	0.016811	-0.011614	-0.520757	0.261133	0.757773	0.293942
11056		9.307157	1.725045	-2.736760	0.021232	0.022608	-0.002955	-0.520852	0.261073	0.757746	0.293897
11057		9.162367	1.683320	-2.836558	-0.023020	0.030799	0.007096	-0.520945	0.261159	0.757613	0.293997
11058		9.144692	1.638337	-2.893515	-0.039074	0.026504	0.018254	-0.521006	0.261334	0.757460	0.294127
11059		9.073760	1.996249	-2.955232	-0.066098	0.039824	0.034720	-0.521114	0.261631	0.757205	0.294330
11060		9.233716	2.060385	-3.037828	-0.085059	0.040990	0.046543	-0.521211	0.262016	0.756910	0.294574
11061		9.268725	2.050042	-2.877472	-0.107942	0.041447	0.054569	-0.521297	0.262496	0.756564	0.294884
11062		9.450213	2.033428	-2.817304	-0.101854	0.046855	0.060730	-0.521413	0.262971	0.756211	0.295160
11063		9.519548	2.057104	-2.881305	-0.066284	0.050667	0.063960	-0.521603	0.263361	0.755891	0.295297
11064		9.447488	1.927861	-2.858573	-0.051169	0.061944	0.065277	-0.521849	0.263698	0.755568	0.295389
11065		9.426806	1.695623	-2.648352	-0.038349	0.060210	0.070835	-0.522120	0.264027	0.755255	0.295415
11066		9.436814	1.695599	-2.412371	-0.029943	0.051657	0.075489	-0.522367	0.264360	0.754978	0.295387
11067		9.507205	1.643923	-2.138964	-0.033801	0.043191	0.081035	-0.522593	0.264741	0.754704	0.295349
11068		9.530199	1.759529	-1.599695	-0.052746	0.031923	0.078705	-0.522740	0.265174	0.754440	0.295373
11069		9.595103	1.832310	-1.497077	-0.062749	0.007960	0.083684	-0.522797	0.265687	0.754214	0.295390
11070		9.697603	1.665796	-1.588928	-0.049583	-0.015283	0.086245	-0.522778	0.266205	0.754070	0.295323
11071		9.669265	1.287901	-1.557370	-0.025066	-0.026250	0.071268	-0.522737	0.266618	0.754005	0.295190
11072		9.616014	0.906411	-1.526909	0.006517	-0.044915	0.060277	-0.522643	0.266929	0.754056	0.294946
11073		9.564310	0.892454	-1.619159	0.069271	-0.073384	0.043112	-0.522508	0.267050	0.754290	0.294477
11074		9.440900	1.167108	-1.528056	0.062205	-0.117053	0.032299	-0.522174	0.267205	0.754649	0.294008
11075		9.460111	1.377627	-1.269633	0.028217	-0.140538	0.030542	-0.521711	0.267480	0.755014	0.293643
11076		9.529078	1.642864	-1.394633	0.025537	-0.162401	0.038614	-0.521163	0.267819	0.755430	0.293237
11077		9.478990	1.761186	-1.436231	-0.019754	-0.193818	0.043255	-0.520451	0.268338	0.755849	0.292947
11078		9.361253	1.388062	-1.661717	-0.043792	-0.219453	0.042162	-0.519598	0.268950	0.756307	0.292719
11079		9.397754	1.302776	-1.684563	-0.033455	-0.232186	0.036983	-0.518711	0.269534	0.756811	0.292449
11080		9.344166	1.546819	-1.811290	-0.048209	-0.246471	0.041388	-0.517746	0.270190	0.757333	0.292204
11081		9.304529	1.776755	-2.190506	-0.071309	-0.265758	0.044938	-0.516691	0.270948	0.757857	0.292011
11082		9.265212	1.672657	-2.267433	-0.109273	-0.282284	0.051108	-0.515517	0.271849	0.758367	0.291923
11083		9.211851	1.347720	-2.407645	-0.136161	-0.304971	0.051890	-0.514232	0.272855	0.758886	0.291904
11084		9.278262	1.345836	-2.458886	-0.132212	-0.308454	0.055816	-0.512931	0.273868	0.759420	0.291855
11085		9.248831	1.576128	-2.576877	-0.161620	-0.314264	0.057387	-0.511579	0.274975	0.759912	0.291906
11086		9.309586	1.726215	-2.667774	-0.188456	-0.331908	0.065901	-0.510122	0.276203	0.760406	0.292010
11087		9.286016	1.607404	-2.506010	-0.221334	-0.339841	0.070359	-0.508606	0.277542	0.760856	0.292213
11088		9.269740	1.515484	-2.535366	-0.232993	-0.352203	0.074367	-0.507017	0.278943	0.761319	0.292433
11089		9.306801	1.443466	-2.461710	-0.229758	-0.374196	0.071807	-0.505354	0.280355	0.761835	0.292617
11090		9.261399	1.236193	-2.481269	-0.225311	-0.378345	0.069062	-0.503663	0.281748	0.762377	0.292785
11091		9.318701	1.044027	-2.422681	-0.188693	-0.393988	0.057103	-0.501955	0.283023	0.763016	0.292823
11092		9.342197	1.020050	-2.414232	-0.173106	-0.411362	0.044739	-0.500172	0.284231	0.763743	0.292809
11093		9.296106	1.027620	-2.285149	-0.160874	-0.434457	0.033159	-0.498310	0.285394	0.764551	0.292744
11094		9.223522	0.869038	-2.228750	-0.168518	-0.471733	0.026636	-0.496269	0.286599	0.765454	0.292674
11095		9.178862	0.639545	-2.016859	-0.175987	-0.499992	0.016414	-0.494104	0.287822	0.766417	0.292617
11096		9.163013	0.652726	-1.612192	-0.205792	-0.529875	0.007454	-0.491751	0.289122	0.767426	0.292655
11097		9.263931	0.894652	-1.406676	-0.243938	-0.581574	0.004494	-0.489148	0.290578	0.768494	0.292773
11098		9.443096	1.090947	-1.263596	-0.288590	-0.618768	-0.002034	-0.486309	0.292163	0.769599	0.293022
11099		9.365290	1.001267	-1.206413	-0.328102	-0.661362	-0.018364	-0.483233	0.293839	0.770754	0.293400
11100		9.325402	0.792494	-1.422942	-0.318931	-0.706857	-0.032975	-0.479952	0.295491	0.772052	0.293711
11101		9.358740	0.735433	-1.620608	-0.305022	-0.743670	-0.054554	-0.476525	0.297073	0.773470	0.293966
11102		9.283170	0.548545	-1.854905	-0.274126	-0.782058	-0.079197	-0.472937	0.298529	0.775057	0.294104
11103		9.220025	0.552948	-1.920608	-0.212331	-0.814987	-0.103440	-0.469286	0.299783	0.776828	0.294006
11104		9.168560	0.753945	-2.158783	-0.162207	-0.842629	-0.127242	-0.465543	0.300855	0.778766	0.293733
11105		9.183754	1.051258	-2.316453	-0.105483	-0.874720	-0.148492	-0.461737	0.301752	0.780870	0.293237
11106		9.168021	1.215833	-2.342111	-0.092736	-0.913192	-0.160219	-0.457755	0.302614	0.783093	0.292661
11107		9.093413	1.151555	-2.234288	-0.065349	-0.939701	-0.169666	-0.453703	0.303406	0.785405	0.291954
11108		9.187380	1.287379	-2.116097	-0.035135	-0.968916	-0.176232	-0.449543	0.304133	0.787830	0.291097
11109		9.259379	1.575214	-1.975289	-0.017884	-0.999939	-0.175747	-0.445293	0.304859	0.790321	0.290117
11110		9.406527	1.675353	-1.908044	-0.035370	-1.038015	-0.171471	-0.440841	0.305682	0.792855	0.289134
11111		9.545259	1.476595	-1.702358	-0.060419	-1.087155	-0.167293	-0.436165	0.306637	0.795423	0.288158
11112		9.701624	1.335945	-1.511860	-0.077234	-1.148316	-0.158791	-0.431198	0.307732	0.798075	0.287132
11113		9.912700	1.335579	-1.532412	-0.098894	-1.215207	-0.153987	-0.425938	0.308975	0.800796	0.286070
11114		10.165013	1.266166	-1.560219	-0.129781	-1.305460	-0.143400	-0.420244	0.310431	0.803631	0.284965
11115		10.558744	0.893761	-1.507477	-0.173026	-1.388600	-0.145143	-0.414142	0.312070	0.806536	0.283899
11116		10.737518	0.376083	-1.440350	-0.185901	-1.481472	-0.149523	-0.407596	0.313819	0.809593	0.282739
11117		10.955055	0.035072	-1.241636	-0.204590	-1.585001	-0.170507	-0.400568	0.315642	0.812809	0.281526
11118		11.217961	-0.049189	-1.101379	-0.209556	-1.681518	-0.203008	-0.393044	0.317442	0.816221	0.280234
11119		11.642095	-0.273135	-1.163057	-0.217565	-1.793027	-0.224687	-0.385013	0.319292	0.819800	0.278828
11120		12.067995	-0.441728	-1.511650	-0.194264	-1.889676	-0.274363	-0.376497	0.320982	0.823621	0.277253
11121		12.226572	-0.062084	-1.674860	-0.247656	-2.004074	-0.276325	-0.367407	0.322885	0.827495	0.275699
11122		12.857561	-0.315085	-2.114534	-0.251934	-2.102919	-0.270590	-0.357838	0.324905	0.831464	0.273964
11123		12.605963	-0.693192	-2.028335	-0.236591	-2.145386	-0.284928	-0.348087	0.326857	0.835442	0.272097
11124		12.580844	-0.264990	-1.630048	-0.149753	-2.231428	-0.270823	-0.338058	0.328775	0.839584	0.269670
11125		12.717091	0.741218	-1.100257	-0.020743	-2.313267	-0.199485	-0.327971	0.330832	0.843806	0.266415
11126		12.927366	2.031678	-0.838297	0.097524	-2.390616	-0.124449	-0.317762	0.333050	0.848097	0.262368
11127		13.338330	3.300275	-1.415780	0.161875	-2.445352	0.006101	-0.307572	0.335741	0.852212	0.257707
11128		13.537805	4.799644	-2.240176	0.062249	-2.454121	0.155498	-0.297274	0.339182	0.855856	0.253167
11129		13.132342	6.639322	-2.713763	-0.221062	-2.457119	0.333542	-0.286686	0.343780	0.858701	0.249516
11130		12.417434	7.954524	-3.390605	-0.465639	-2.465390	0.546729	-0.275805	0.349607	0.860774	0.246525
11131		11.309274	9.021481	-4.780237	-0.557573	-2.454865	0.785983	-0.265074	0.356533	0.862147	0.243561
11132		10.006969	9.551632	-6.193167	-0.782539	-2.357304	1.024871	-0.254547	0.364627	0.862559	0.241340
11133		8.565220	10.179998	-6.926985	-1.045116	-2.218125	1.189536	-0.244327	0.373565	0.861997	0.240239
11134		7.059910	10.616790	-7.192626	-1.402935	-2.074314	1.297027	-0.234096	0.383193	0.860469	0.240737
11135		5.875755	12.057624	-6.108365	-1.952872	-1.933962	1.355811	-0.223484	0.393511	0.857783	0.243745
11136		5.265554	13.001552	-4.829368	-2.668440	-1.850490	1.428941	-0.211812	0.404776	0.853751	0.249803
11137		5.668343	13.310809	-5.867348	-3.088855	-1.818118	1.591809	-0.199588	0.417026	0.848511	0.257455
11138		6.340185	12.458093	-6.546748	-3.385361	-1.694377	1.786180	-0.187388	0.430098	0.842020	0.266278
11139		6.034798	11.461028	-6.929449	-3.728755	-1.646805	2.014533	-0.174888	0.444211	0.834116	0.276298
11140		5.725002	11.322923	-6.618749	-4.107930	-1.533912	2.267397	-0.162215	0.459341	0.824567	0.287717
11141		5.203352	10.754579	-6.724681	-4.349984	-1.402059	2.526487	-0.149821	0.475283	0.813415	0.300028
11142		6.343512	8.765788	-7.203547	-4.471207	-1.340469	2.699812	-0.137494	0.491611	0.801062	0.312592
11143		6.444698	7.835356	-7.565153	-4.413094	-1.117384	2.790882	-0.126285	0.507586	0.787819	0.325192
11144		5.999350	6.585250	-7.695111	-4.216614	-0.942331	2.809629	-0.116173	0.522889	0.774202	0.337197
11145		6.172405	6.245336	-7.482677	-3.793704	-0.642056	2.842675	-0.108354	0.537261	0.760532	0.348139
11146		5.548879	6.548534	-7.544254	-3.434573	-0.318198	2.890552	-0.102723	0.550789	0.746776	0.358338
11147		5.136035	6.583862	-7.837178	-3.089268	-0.028092	2.911208	-0.099158	0.563451	0.733045	0.367880
11148		4.593761	6.271115	-7.972185	-2.826604	0.230461	2.912058	-0.097209	0.575282	0.719353	0.377003
11149		4.328567	5.467998	-7.936708	-2.610825	0.425253	2.892068	-0.096549	0.586351	0.705717	0.385791
11150		4.231957	4.971412	-7.714135	-2.397566	0.605232	2.882474	-0.097064	0.596726	0.692177	0.394192
11151		4.078689	4.280926	-7.745371	-2.136165	0.809299	2.911855	-0.099129	0.606476	0.678697	0.402157
11152		3.845464	3.867795	-7.729325	-1.866980	1.023977	2.964922	-0.102779	0.615648	0.665271	0.409670
11153		3.457764	3.469017	-7.775274	-1.623434	1.288410	3.026563	-0.108190	0.624171	0.651765	0.417023
11154		2.949367	3.176350	-7.811117	-1.394063	1.528626	3.066140	-0.115118	0.632002	0.638266	0.424189
11155		2.634862	3.217854	-7.924259	-1.231091	1.803181	3.104922	-0.123523	0.639081	0.624575	0.431537
11156		1.899601	3.143727	-7.936692	-1.071172	2.072707	3.126883	-0.133259	0.645329	0.610758	0.439052
11157		1.369911	3.457986	-7.889788	-0.935489	2.269813	3.126038	-0.144023	0.650815	0.596844	0.446626
11158		1.272403	4.021100	-7.889368	-0.883345	2.408213	3.134413	-0.155305	0.655726	0.582685	0.454293
11159		1.455892	4.463488	-8.062181	-0.887018	2.556417	3.156058	-0.167029	0.660104	0.568056	0.462251
11160		1.338226	4.681046	-8.277424	-0.903227	2.707712	3.179867	-0.179088	0.663934	0.552936	0.470512
11161		1.182570	4.952025	-8.171795	-0.925093	2.857039	3.194923	-0.191477	0.667176	0.537291	0.479095
11162		1.251313	4.990221	-8.196291	-0.910633	2.969600	3.241902	-0.204212	0.669941	0.521159	0.487718
11163		1.626273	4.373921	-8.908737	-0.880256	3.127777	3.329271	-0.217598	0.672185	0.504352	0.496436
11164		1.248110	4.632773	-9.171214	-0.766387	3.395004	3.430323	-0.232155	0.673533	0.486909	0.505348
11165		0.566410	5.149346	-8.905107	-0.623849	3.557856	3.512231	-0.247679	0.674104	0.469042	0.514041
11166		1.115416	5.469077	-8.766879	-0.577044	3.659992	3.563518	-0.263553	0.674044	0.450702	0.522563
11167		1.736967	5.081963	-8.037836	-0.340512	3.764401	3.650420	-0.280525	0.673149	0.432237	0.530422
11168		3.332547	3.996162	-7.734998	-0.194813	3.672361	3.688160	-0.297667	0.671904	0.413893	0.537244
11169		4.576588	1.848527	-6.896509	-0.130250	3.632301	3.346874	-0.313851	0.669511	0.396632	0.543999
11170		7.817518	0.598697	-5.105912	0.126841	3.331278	3.041492	-0.329254	0.666509	0.381368	0.549469
11171		11.621305	-1.965662	-3.387987	0.516852	2.958749	2.714354	-0.344173	0.662915	0.368715	0.553297
11172		13.442656	-4.227236	-1.304335	0.995732	2.673925	2.337014	-0.358940	0.658289	0.359013	0.555812
11173		11.824281	-3.628025	1.443162	1.302792	2.418854	1.861475	-0.372818	0.652722	0.352060	0.557686
11174		8.927281	-1.711850	5.277618	1.223426	2.077966	1.284812	-0.384115	0.647035	0.347313	0.559620
11175		6.520082	0.676411	6.333271	1.021962	1.367079	0.632054	-0.391621	0.642437	0.345420	0.560886
11176		7.161133	-0.011960	6.193504	0.499005	0.458824	-0.025861	-0.393955	0.640167	0.345954	0.561517
11177		8.630517	-0.230043	6.347569	0.010545	-0.122710	-0.596318	-0.392003	0.639511	0.347946	0.562400
11178		9.142181	0.660743	4.725587	-0.681914	-0.629681	-1.058449	-0.385720	0.640712	0.350555	0.563755
11179		10.107001	1.791636	1.702273	-1.205104	-1.275239	-1.422914	-0.375555	0.644001	0.354065	0.564676
11180		11.930662	0.786825	-0.810635	-1.672400	-1.541672	-1.625481	-0.362761	0.648442	0.357356	0.565884
11181		15.408830	-4.835966	-2.429557	-2.075135	-1.442061	-1.528729	-0.348951	0.653464	0.358780	0.567887
11182		19.936021	-7.808430	-0.069486	-1.951099	-1.183285	-0.905186	-0.337829	0.658507	0.358175	0.569167
11183		15.939213	-2.355827	-0.329314	-1.346385	-1.014448	-0.783617	-0.329206	0.662260	0.358446	0.569694
11184		11.544443	1.862014	-3.390151	-0.990749	-1.363572	-0.925866	-0.320756	0.666006	0.360910	0.568591
11185		8.054623	2.530761	-6.037345	-0.677995	-1.375803	-1.022804	-0.312913	0.669111	0.364437	0.567063
11186		5.382666	4.291785	-7.699827	-0.849942	-1.332037	-0.986257	-0.304759	0.672306	0.367388	0.565820
11187		5.225284	5.241077	-8.980752	-0.896616	-1.245009	-0.882196	-0.296787	0.675547	0.369556	0.564785
11188		5.405974	5.121021	-9.515158	-0.910190	-1.044745	-0.668762	-0.289831	0.678541	0.370774	0.564009
11189		6.377605	6.373012	-8.397318	-1.199611	-1.034173	-0.615469	-0.281983	0.682046	0.370846	0.563713
11190		8.059876	6.914797	-6.876094	-1.344606	-0.983948	-0.797897	-0.273279	0.685158	0.371110	0.564052
11191		10.542948	4.899826	-6.445022	-0.757670	-0.769764	-1.005001	-0.266314	0.686473	0.373313	0.564331
11192		11.499517	2.662386	-6.006896	-0.274715	-0.558580	-0.944629	-0.261629	0.686583	0.376469	0.564292
11193		11.461754	2.193528	-6.793569	-0.505554	-0.572794	-0.768181	-0.256541	0.687421	0.378282	0.564395
11194		10.944281	1.991717	-6.603398	-0.447132	-0.496758	-0.701098	-0.252060	0.688026	0.380019	0.564509
11195		9.605505	0.797202	-5.193236	-0.163758	-0.453017	-0.658835	-0.248667	0.688278	0.382260	0.564194
11196		9.368026	0.542534	-4.227595	-0.007080	-0.434137	-0.568206	-0.246174	0.688388	0.384709	0.563488
11197		9.066320	1.448853	-3.969081	-0.016850	-0.457491	-0.509340	-0.243767	0.688691	0.386954	0.562627
11198		9.405496	2.674220	-3.972580	-0.072557	-0.472401	-0.546207	-0.241030	0.689014	0.389184	0.561872
11199		9.623874	3.221055	-3.370842	0.008105	-0.373789	-0.579768	-0.238597	0.688951	0.391531	0.561357
11200		9.753616	3.357471	-2.842291	0.059017	-0.358136	-0.561615	-0.236492	0.688752	0.394030	0.560743
11201		9.979929	3.333434	-2.801117	0.072891	-0.359985	-0.531513	-0.234515	0.688602	0.396461	0.560043
11202		9.962716	2.825070	-3.119674	0.085324	-0.371292	-0.470966	-0.232719	0.688579	0.398736	0.559204
11203		9.612067	1.799598	-3.211655	0.120323	-0.364445	-0.402097	-0.231249	0.688639	0.400864	0.558219
11204		9.260788	0.969942	-2.812055	0.147808	-0.353067	-0.377119	-0.229962	0.688674	0.402970	0.557189
11205		9.086106	0.690720	-2.483485	0.195320	-0.360765	-0.392385	-0.228696	0.688704	0.405173	0.556076
11206		9.089395	0.792373	-2.224696	0.203822	-0.370123	-0.416554	-0.227452	0.688628	0.407585	0.554917
11207		9.117879	0.902278	-1.603355	0.171138	-0.415495	-0.426754	-0.225972	0.688691	0.409990	0.553669
11208		9.141654	0.829118	-1.186335	0.139199	-0.450169	-0.432260	-0.224290	0.688861	0.412364	0.552377
11209		9.274734	0.835896	-0.782580	0.134672	-0.502669	-0.419935	-0.222429	0.689264	0.414644	0.550917
11210		9.338625	0.715693	-0.325062	0.107745	-0.539288	-0.435778	-0.220434	0.689687	0.417042	0.549378
11211		9.348577	0.683361	0.277602	0.087507	-0.612138	-0.459838	-0.218147	0.690274	0.419543	0.547647
11212		9.395879	0.647029	0.564173	0.094353	-0.704663	-0.483161	-0.215612	0.691032	0.422249	0.545612
11213		9.322223	0.486783	0.452878	0.106780	-0.800126	-0.505870	-0.212775	0.692029	0.425079	0.543259
11214		9.117689	0.426788	0.182572	0.108011	-0.891197	-0.545828	-0.209698	0.693101	0.428233	0.540605
11215		9.056168	0.525863	-0.443204	0.088125	-0.942603	-0.615410	-0.206178	0.694218	0.431524	0.537903
11216		9.046158	0.786471	-1.243432	0.019970	-0.976599	-0.669427	-0.202265	0.695291	0.434929	0.535253
11217		9.205770	1.017599	-2.184890	-0.023452	-0.980740	-0.695062	-0.198126	0.696342	0.438288	0.532690
11218		9.332858	1.350205	-3.007205	-0.072449	-0.988160	-0.694300	-0.193788	0.697434	0.441509	0.530190
11219		9.588133	1.497411	-3.571759	-0.069898	-0.972686	-0.686558	-0.189431	0.698547	0.444572	0.527734
11220		9.717202	1.704594	-3.855574	0.014605	-0.954159	-0.690536	-0.185470	0.699426	0.447946	0.525118
11221		9.750585	1.525533	-3.755330	0.125119	-0.946610	-0.701086	-0.181808	0.700197	0.451530	0.522293
11222		9.659940	1.294611	-3.189792	0.204063	-0.940886	-0.707313	-0.178478	0.700776	0.455420	0.519279
11223		9.478366	0.729493	-2.245226	0.265756	-0.947483	-0.722164	-0.175311	0.701259	0.459508	0.516095
11224		9.453078	-0.116483	-1.223081	0.277797	-0.988097	-0.740817	-0.172027	0.701758	0.463720	0.512744
11225		9.723713	-1.084321	-0.411437	0.262267	-1.051392	-0.772008	-0.168380	0.702399	0.467932	0.509238
11226		10.136407	-1.744978	0.135240	0.212262	-1.116975	-0.825188	-0.164330	0.703012	0.472346	0.505627
11227		10.396905	-1.797578	0.240142	0.149953	-1.197969	-0.884634	-0.159722	0.703699	0.476848	0.501909
11228		10.390647	-1.581466	0.126156	0.107710	-1.303834	-0.933512	-0.154563	0.704515	0.481486	0.497936
11229		10.328311	-1.043159	0.095828	0.071083	-1.400908	-0.980459	-0.148838	0.705513	0.486125	0.493742
11230		10.596392	-0.514243	0.158299	0.018993	-1.508156	-1.019739	-0.142627	0.706573	0.490944	0.489271
11231		11.157399	-0.240649	0.407766	-0.004804	-1.632494	-1.052982	-0.135944	0.707803	0.495865	0.484409
11232		11.582090	-0.194684	0.629484	-0.006723	-1.763763	-1.078008	-0.128829	0.709205	0.500933	0.479059
11233		11.902123	-0.216912	0.463663	0.009574	-1.895442	-1.109822	-0.121258	0.710847	0.506039	0.473199
11234		12.258878	-0.378840	0.471833	0.057730	-2.013582	-1.178328	-0.113460	0.712355	0.511673	0.466763
11235		12.876288	-1.257586	1.019349	0.057154	-2.034486	-1.327611	-0.105158	0.713539	0.517601	0.460319
11236		13.042269	-1.638104	1.737074	0.008044	-2.128699	-1.559271	-0.095980	0.714113	0.524378	0.453716
11237		14.249228	-2.413903	0.903814	-0.032317	-2.552171	-1.654568	-0.085170	0.715401	0.531309	0.445710
11238		15.154131	-2.602546	1.189465	0.029397	-2.600714	-1.741659	-0.074358	0.716196	0.538816	0.437277
11239		15.651236	-2.374226	1.399946	0.105010	-2.671443	-1.777186	-0.063360	0.717068	0.546200	0.428327
11240		17.657397	-2.588621	1.303822	0.488062	-2.763698	-1.760659	-0.053656	0.717621	0.554569	0.417846
11241		19.826049	-3.461115	1.980579	0.935526	-2.674441	-1.738337	-0.045527	0.718164	0.563064	0.406357
11242		20.204987	-2.687372	1.310379	1.174403	-2.678077	-1.728228	-0.038560	0.718049	0.572421	0.394023
11243		20.025163	-0.163309	-1.112635	0.935435	-2.926162	-1.697201	-0.029593	0.719051	0.580202	0.381387
11244		19.192937	2.950926	-1.651973	1.059291	-3.085197	-1.539748	-0.021370	0.719849	0.588405	0.367614
11245		17.930679	6.729882	-1.266101	1.288144	-3.088709	-1.259529	-0.014076	0.721882	0.595052	0.352989
11246		16.969614	10.390741	-5.796690	1.188497	-2.766312	-0.826707	-0.008530	0.723842	0.600538	0.339608
11247		13.277802	13.632461	-10.415611	0.506310	-2.074624	-0.453712	-0.002907	0.726402	0.602491	0.330661
11248		9.793651	14.369726	-13.693322	-0.211117	-1.589585	-0.147714	0.002978	0.728451	0.602806	0.325538
11249		6.408179	12.106698	-12.291408	-1.014500	-1.025753	0.056691	0.010029	0.730819	0.600228	0.324853
11250		4.979309	10.981547	-10.985650	-1.361811	-0.736797	0.094738	0.017098	0.732218	0.597611	0.326230
11251		4.620370	11.533184	-10.078586	-1.902076	-0.498315	0.203241	0.025566	0.734100	0.592881	0.330055
11252		5.934087	9.696680	-10.218464	-2.009792	-0.330034	0.481539	0.033147	0.735856	0.587656	0.334780
11253		6.972233	8.099762	-9.387807	-2.369680	-0.226278	0.823422	0.041443	0.738805	0.579860	0.340899
11254		7.206358	8.007529	-8.522702	-2.793074	-0.432194	1.194046	0.051013	0.742470	0.570452	0.347448
11255		8.541286	8.355846	-8.500158	-2.790089	-0.254762	1.675260	0.059445	0.747430	0.558633	0.354605
11256		6.723159	9.872224	-8.033096	-2.514154	0.177558	2.131839	0.064603	0.752443	0.546061	0.362592
11257		5.270709	10.269723	-7.396148	-2.130901	0.730912	2.487856	0.066390	0.757781	0.532262	0.371561
11258		1.811062	9.660283	-7.217153	-1.814216	1.227321	2.713264	0.064960	0.762320	0.518735	0.381525
11259		0.253960	9.412381	-7.165957	-1.664267	1.505930	2.837927	0.062164	0.766763	0.504476	0.392063
11260		-0.943780	9.150119	-7.176607	-1.615937	1.815101	2.974946	0.057911	0.770434	0.490123	0.403557
11261		-1.227831	8.530020	-7.322708	-1.633565	2.039296	3.102743	0.053075	0.773920	0.474681	0.415824
11262		-0.671061	7.029013	-7.775813	-1.573378	2.241157	3.179938	0.047153	0.776626	0.459306	0.428562
11263		-0.151073	5.759772	-8.039643	-1.503465	2.317692	3.242907	0.040749	0.779137	0.443360	0.441268
11264		0.295955	4.689055	-7.714570	-1.260797	2.293329	3.359604	0.033069	0.781503	0.427587	0.453132
11265		1.080056	4.324518	-7.004349	-0.878092	2.472617	3.522015	0.023259	0.783654	0.411593	0.464691
11266		0.934145	4.067001	-7.150808	-0.411187	2.886115	3.701524	0.010200	0.784746	0.396076	0.476648
11267		0.106480	4.062559	-7.765367	0.126493	3.330053	3.817520	-0.006082	0.784658	0.380975	0.489013
11268		-0.816233	4.398716	-8.076264	0.586253	3.666480	3.828129	-0.024901	0.783160	0.366844	0.501464
11269		-1.140842	5.427294	-8.368745	0.806098	3.890989	3.769983	-0.044805	0.780436	0.353055	0.514066
11270		-1.245715	6.939479	-8.485294	0.735728	4.027117	3.720731	-0.064559	0.776663	0.339083	0.526925
11271		-1.053890	8.010296	-9.150537	0.503830	4.114905	3.727888	-0.083535	0.772172	0.324085	0.540130
11272		-1.176836	8.857791	-9.891664	0.317592	4.270020	3.834733	-0.102289	0.766894	0.307906	0.553719
11273		-1.125617	9.292245	-10.581061	0.051523	4.532028	4.034667	-0.120930	0.760697	0.289747	0.568121
11274		-1.341855	7.390044	-12.712541	-0.146176	4.751900	4.261943	-0.139677	0.753613	0.269772	0.582907
11275		-1.520057	7.554192	-12.239776	-0.507566	4.828532	4.469198	-0.157650	0.746068	0.247580	0.597690
11276		-2.433779	6.875904	-9.258082	-0.646305	4.790850	4.503194	-0.174980	0.737974	0.224640	0.611811
11277		0.515963	4.252562	-8.146678	-0.492060	4.614955	4.250542	-0.191711	0.729206	0.203007	0.624735
11278		5.566872	1.056426	-8.392988	-0.082084	4.568722	4.136488	-0.209322	0.719349	0.182957	0.636591
11279		9.447054	-3.109201	-7.664355	0.025747	4.392966	3.964759	-0.226413	0.709106	0.163881	0.647340
11280		15.862634	-7.606016	-0.075019	0.238442	4.025580	3.618033	-0.242594	0.698917	0.147040	0.656538
11281		14.958956	-8.819228	5.523731	1.111200	3.640668	2.943879	-0.259110	0.687911	0.135800	0.664228
11282		11.786048	-5.482476	11.741447	1.462869	2.869819	2.050835	-0.273105	0.677988	0.129765	0.670006
11283		9.702994	-6.278728	15.649528	1.521425	1.927038	0.848597	-0.282491	0.670064	0.129235	0.674174
11284		4.592220	-3.173815	15.672071	1.169729	0.628000	-0.233298	-0.286036	0.666139	0.133007	0.675834
11285		3.931702	-0.947013	9.790121	0.589675	-0.597046	-1.015314	-0.284097	0.666540	0.139185	0.675012
11286		5.947597	3.523005	3.582313	-0.153842	-1.407149	-1.519220	-0.277308	0.670290	0.145698	0.672743
11287		6.613117	6.405483	-3.656572	-0.937502	-1.906355	-1.787456	-0.266588	0.676470	0.151122	0.669687
11288		8.978335	7.825583	-8.920107	-1.260038	-2.054588	-1.973561	-0.253954	0.683286	0.156268	0.666489
11289		13.496415	0.812065	-8.040493	-1.778219	-1.557263	-1.645086	-0.241062	0.689239	0.157838	0.664775
11290		15.964772	-8.700241	-5.246262	-1.429454	-0.946918	-0.827404	-0.232576	0.693372	0.157021	0.663693
11291		11.437717	-5.943158	2.563719	-1.083579	-0.206268	-0.764712	-0.226141	0.694661	0.156194	0.664763
11292		6.944263	0.305118	0.481237	-1.068015	-0.207525	-1.368620	-0.217710	0.695379	0.157480	0.666521
11293		11.206042	1.200760	-2.276240	-0.598809	-0.979148	-1.304848	-0.210428	0.698132	0.161018	0.665135
11294		15.421810	3.657450	-2.391621	-0.984518	-1.107765	-1.206074	-0.201990	0.701755	0.163071	0.663436
11295		16.073364	7.137773	-1.367691	-2.007714	-1.049772	-1.259304	-0.189865	0.706086	0.161771	0.662739
11296		16.418956	4.291006	-8.137716	-1.908547	-1.903329	-1.159116	-0.177597	0.713088	0.161338	0.658737
11297		15.706956	2.718894	-9.491323	-1.340687	-2.300451	-1.319156	-0.166421	0.720578	0.163704	0.652895
11298		9.111548	0.981015	-8.977591	-1.210154	-1.920978	-1.513653	-0.155371	0.726410	0.166813	0.648353
11299		4.927476	-0.815998	-8.208829	-0.797477	-1.748045	-1.478843	-0.146063	0.731273	0.170963	0.643954
11300		1.771334	0.346434	-7.245807	-0.367398	-1.242224	-1.364849	-0.139131	0.734222	0.175672	0.640858
11301		2.146972	3.380700	-8.940001	0.096009	-0.784747	-1.293593	-0.134563	0.735409	0.181245	0.638918
11302		6.479177	4.815751	-9.131588	0.485841	-0.508552	-1.348001	-0.131493	0.735355	0.188056	0.637650
11303		10.053090	5.509346	-7.890676	0.662969	-0.474439	-1.312112	-0.129222	0.735076	0.195271	0.636266
11304		13.335417	7.209114	-6.135126	0.384996	-0.764790	-1.048079	-0.126454	0.736129	0.200842	0.633866
11305		13.459451	6.758937	-4.839360	-0.015785	-0.764674	-0.871566	-0.122782	0.737613	0.204476	0.631698
11306		10.535847	7.026411	-3.430253	0.019296	-0.805953	-0.782515	-0.119469	0.739267	0.207924	0.629268
11307		8.840955	4.149155	-3.102616	0.217825	-0.755714	-0.790321	-0.116909	0.740623	0.211992	0.626793
11308		8.637550	2.846336	-2.784695	0.264226	-0.658651	-0.848287	-0.114447	0.741551	0.216345	0.624659
11309		9.170994	2.187027	-2.498649	0.212961	-0.486232	-0.970338	-0.111615	0.741820	0.220866	0.623268
11310		9.682893	1.464795	-1.533645	0.364511	-0.471491	-0.916933	-0.109519	0.741989	0.225647	0.621724
11311		10.373270	1.610026	-1.264710	0.406202	-0.502480	-0.737594	-0.108097	0.742436	0.229926	0.619869
11312		9.875263	2.417474	-1.600641	0.282190	-0.547935	-0.646961	-0.106439	0.743178	0.233499	0.617929
11313		9.561545	2.839726	-1.992755	0.203631	-0.606299	-0.644546	-0.104416	0.744140	0.236849	0.615838
11314		9.197624	2.339417	-1.512110	0.153286	-0.586641	-0.666699	-0.102171	0.745014	0.240107	0.613892
11315		8.913933	1.424310	-0.993109	0.058178	-0.599398	-0.674848	-0.099517	0.745964	0.243097	0.611994
11316		9.066428	0.931714	-0.677314	0.020299	-0.630945	-0.668465	-0.096713	0.747010	0.245965	0.610020
11317		9.347037	1.212535	-0.564039	0.056940	-0.673511	-0.646235	-0.094051	0.748186	0.248889	0.607804
11318		9.651127	1.528277	-0.567664	0.127833	-0.742877	-0.634065	-0.091598	0.749528	0.252016	0.605232
11319		9.805325	1.555832	-0.205532	0.167796	-0.818908	-0.630717	-0.089192	0.751071	0.255290	0.602299
11320		9.575653	1.091293	0.054932	0.204883	-0.909729	-0.634889	-0.086792	0.752831	0.258735	0.598973
11321		9.186911	0.874391	-0.062310	0.280025	-0.997163	-0.695752	-0.084363	0.754712	0.262674	0.595226
11322		8.907215	0.655839	-0.494604	0.248495	-1.036472	-0.798408	-0.081455	0.756542	0.266909	0.591413
11323		8.862499	0.210558	-1.346515	0.227885	-1.064167	-0.866195	-0.078218	0.758338	0.271333	0.587524
11324		8.994732	0.586835	-2.045093	0.179048	-1.020593	-0.872922	-0.074845	0.759974	0.275606	0.583848
11325		9.240431	1.080222	-3.052180	0.141668	-0.993658	-0.864151	-0.071389	0.761532	0.279709	0.580288
11326		9.489626	1.760124	-3.619779	0.115814	-0.953608	-0.856937	-0.067917	0.762958	0.283680	0.576895
11327		9.807494	1.645358	-3.544221	0.085152	-0.970149	-0.846854	-0.064320	0.764434	0.287510	0.573448
11328		10.253745	0.662555	-2.768789	0.092547	-1.021308	-0.833045	-0.060720	0.766031	0.291327	0.569770
11329		10.313315	-0.320173	-1.050282	0.063341	-1.045455	-0.824614	-0.056987	0.767693	0.295018	0.566008
11330		10.252113	-1.005537	0.425782	-0.036560	-1.084132	-0.849077	-0.052748	0.769411	0.298524	0.562235
11331		10.254089	-1.123563	0.986897	-0.125847	-1.179969	-0.881947	-0.047924	0.771334	0.301917	0.558206
11332		10.359223	-1.062799	0.930177	-0.265432	-1.278639	-0.933447	-0.042261	0.773430	0.305131	0.553999
11333		10.578240	-1.567202	-0.031595	-0.323540	-1.431334	-0.989299	-0.035977	0.775816	0.308418	0.549267
11334		10.719375	-1.693943	-0.114418	-0.317982	-1.499333	-1.053730	-0.029420	0.778211	0.311967	0.544241
11335		10.675028	-1.515540	-0.172456	-0.320057	-1.566470	-1.124008	-0.022560	0.780605	0.315761	0.538927
11336		11.236386	-0.844179	-0.094101	-0.306081	-1.664536	-1.177370	-0.015438	0.783086	0.319798	0.533167
11337		11.543685	-0.470661	0.496952	-0.294929	-1.756350	-1.219681	-0.008091	0.785657	0.323986	0.526982
11338		11.579030	-0.741915	1.127644	-0.239002	-1.861130	-1.256479	-0.000686	0.788329	0.328470	0.520235
11339		12.089597	-0.893467	1.645796	-0.102300	-1.952225	-1.332232	0.006533	0.791005	0.333546	0.512851
11340		13.290479	-1.951698	2.112537	0.111595	-2.065569	-1.450727	0.013416	0.793635	0.339635	0.504590
11341		14.255538	-3.558942	2.082721	0.364743	-2.170586	-1.629628	0.019927	0.796092	0.346988	0.495418
11342		14.583033	-5.272172	1.437759	0.640323	-2.223567	-1.932259	0.026196	0.797980	0.356198	0.485453
11343		14.175317	-5.955379	1.163792	0.737806	-2.455849	-2.145803	0.033001	0.799843	0.366359	0.474282
11344		14.969739	-5.982138	1.124670	0.908618	-2.549607	-2.267060	0.039598	0.801472	0.377344	0.462262
11345		16.533104	-4.435331	2.091303	1.014012	-2.620838	-2.266766	0.045882	0.803042	0.388392	0.449632
11346		19.069157	-3.861189	1.321257	1.406774	-2.706941	-2.176647	0.050573	0.804777	0.399897	0.435727
11347		20.978911	-3.979839	0.614932	1.441741	-2.761642	-2.108922	0.055047	0.806513	0.410991	0.421418
11348		21.285557	-2.690079	0.087283	1.134344	-2.817507	-2.077444	0.060811	0.808054	0.421216	0.407343
11349		20.574008	0.625072	-0.839630	0.923345	-2.944026	-1.978145	0.067516	0.809819	0.430235	0.393106
11350		19.107888	4.309503	-1.206035	1.024867	-3.061038	-1.817396	0.073691	0.811831	0.438839	0.378048
11351		17.367915	9.573252	-3.284841	1.154602	-3.015855	-1.460427	0.078569	0.814430	0.445923	0.362883
11352		16.182520	12.697274	-9.821796	0.823198	-2.455681	-0.998068	0.082639	0.816690	0.450750	0.350731
11353		12.774162	14.396965	-11.425696	-0.147867	-1.716106	-0.590743	0.088248	0.818238	0.452136	0.343906
11354		9.221051	13.331401	-11.159491	-0.986403	-1.048746	-0.145800	0.094952	0.819221	0.450606	0.341782
11355		5.400028	11.490017	-12.041405	-1.336623	-0.669016	0.215732	0.101595	0.820278	0.446931	0.342162
11356		5.076469	11.046634	-11.876897	-1.396868	-0.338351	0.438226	0.107347	0.821156	0.442507	0.344046
11357		3.834994	10.216958	-10.659817	-1.534056	0.072935	0.536884	0.112553	0.821515	0.437428	0.347997
11358		4.631020	8.521179	-9.953941	-1.436321	0.304546	0.693754	0.116565	0.821774	0.432107	0.352679
11359		4.905187	6.862045	-8.837410	-1.512430	0.266105	1.107436	0.120207	0.822932	0.424814	0.357584
11360		6.303086	6.200095	-8.021624	-1.744448	0.419182	1.489983	0.123809	0.824409	0.415633	0.363689
11361		5.868986	7.800136	-7.221132	-1.679710	0.522138	1.933781	0.126044	0.826561	0.404696	0.370311
11362		4.354883	10.737485	-6.820412	-1.519174	0.787853	2.268487	0.126491	0.828880	0.392780	0.377734
11363		3.197785	11.210422	-7.157444	-1.316495	1.175509	2.496246	0.124808	0.830891	0.380379	0.386465
11364		1.395358	10.695278	-7.392202	-1.296736	1.590006	2.761947	0.121744	0.832437	0.367070	0.396846
11365		-0.175862	9.006485	-7.465425	-1.169860	1.985798	2.892370	0.117115	0.833309	0.353417	0.408628
11366		-1.153977	7.005927	-7.557229	-1.056204	2.312970	2.930962	0.111293	0.833328	0.340003	0.421399
11367		-1.266234	4.686202	-7.546424	-0.869453	2.495945	2.928497	0.104275	0.832732	0.326927	0.434514
11368		-0.498745	4.211175	-7.247367	-0.508380	2.713942	3.064532	0.095116	0.831761	0.314065	0.447762
11369		0.129708	3.272973	-7.040174	-0.104674	3.028271	3.239530	0.083291	0.830180	0.301330	0.461588
11370		-0.201082	3.652581	-7.094157	0.353888	3.367238	3.449461	0.068559	0.827908	0.288782	0.475891
11371		-0.774803	4.135696	-7.674716	0.765096	3.574266	3.631963	0.051275	0.825024	0.276342	0.490246
11372		-0.719002	4.901591	-8.503998	1.130082	3.720890	3.665069	0.032237	0.821376	0.264511	0.504318
11373		-0.801423	6.465306	-8.690697	1.277718	3.918364	3.624490	0.012332	0.816578	0.253035	0.518674
11374		-1.058012	7.105079	-8.659098	1.285085	4.114812	3.588060	-0.007713	0.810621	0.241525	0.533385
11375		-1.319690	8.054936	-9.045240	1.137853	4.340988	3.615202	-0.027571	0.803441	0.229259	0.548783
11376		-1.725496	9.193405	-9.464896	0.868084	4.638934	3.746012	-0.047006	0.794971	0.215464	0.565144
11377		-1.477289	9.424322	-10.616378	0.565023	4.972057	3.963046	-0.066244	0.785114	0.199612	0.582549
11378		-0.660244	8.885600	-12.944149	0.111191	5.173173	4.184403	-0.084468	0.774252	0.181269	0.600451
11379		-1.553275	7.584333	-13.596466	-0.148597	5.170830	4.264535	-0.101867	0.762714	0.161617	0.617876
11380		-2.918145	7.708232	-7.198141	-0.806679	5.078743	3.877497	-0.115357	0.750640	0.141254	0.635042
11381		2.870266	3.529369	-8.809920	-0.117989	5.074825	3.699515	-0.130750	0.737269	0.123628	0.651195
11382		6.996887	0.653380	-7.532188	0.511505	5.199097	3.606952	-0.148065	0.722288	0.108191	0.666837
11383		13.302919	-4.239477	-1.880800	0.265361	4.708023	3.605452	-0.164069	0.708433	0.092243	0.680217
11384		18.012784	-8.512737	3.235167	1.009567	4.102387	3.491225	-0.181792	0.695378	0.079729	0.690684
11385		13.490756	-2.768283	8.693857	1.346314	3.511183	2.968775	-0.198482	0.683330	0.070722	0.699045
11386		9.344070	-7.014932	17.947754	1.114433	2.508061	1.668686	-0.209234	0.674152	0.066302	0.705226
11387		4.366690	-6.739400	19.916131	0.953659	0.785017	0.331528	-0.213964	0.670526	0.067678	0.707131
11388		4.440938	-5.552590	11.586120	0.778223	-0.456769	-0.752099	-0.213661	0.670990	0.073426	0.706208
11389		5.623181	-0.545201	3.680564	0.262377	-1.010955	-1.441154	-0.208968	0.673583	0.080228	0.704402
11390		7.685373	4.244218	-2.754750	-0.848115	-1.688581	-1.728018	-0.199153	0.679519	0.084795	0.701000
11391		12.646539	6.000047	-9.107932	-1.493021	-2.280251	-1.838431	-0.186478	0.687939	0.088073	0.695851
11392		17.273869	0.542928	-6.641648	-1.690298	-1.735573	-1.306333	-0.175198	0.694803	0.088282	0.691925
11393		12.694645	-6.451154	0.652660	-1.744821	-0.578122	-1.044389	-0.165280	0.697744	0.086269	0.691660
11394		7.456328	-3.660082	7.899200	-1.859407	-0.384180	-1.567442	-0.153189	0.699766	0.085454	0.692502
11395		10.907800	3.338627	4.074463	-1.580377	-0.973499	-1.910590	-0.140580	0.703293	0.087294	0.691373
11396		16.700638	8.004769	-4.436017	-0.842171	-1.781229	-1.602833	-0.131105	0.709141	0.091280	0.686730
11397		17.903966	9.693825	-9.897137	-1.242180	-1.874136	-1.606502	-0.120172	0.715426	0.093944	0.681834
11398		12.316221	5.796670	-9.347195	-1.796841	-1.878241	-1.469760	-0.107685	0.722008	0.094197	0.676930
11399		6.909570	3.697405	-9.700589	-1.571826	-2.247144	-1.357978	-0.096185	0.729595	0.095054	0.670376
11400		6.089430	1.534854	-11.308910	-1.249018	-2.348765	-1.324440	-0.085848	0.737230	0.096907	0.663122
11401		6.526235	0.346999	-10.592209	-0.765476	-2.019746	-1.307959	-0.077536	0.743432	0.100149	0.656709
11402		3.862396	1.583877	-9.866289	-0.420454	-1.289787	-1.491381	-0.070280	0.746914	0.104818	0.652834
11403		2.787439	4.622685	-9.835498	0.248324	-0.920087	-1.580996	-0.065446	0.748833	0.111865	0.649963
11404		6.671127	7.051838	-10.054565	0.364734	-0.761547	-1.430119	-0.061614	0.750240	0.118644	0.647509
11405		10.268782	9.614726	-8.490712	0.245564	-0.522445	-1.268423	-0.058051	0.750985	0.124357	0.645900
11406		11.619328	9.539424	-6.780924	-0.292122	-0.726621	-1.007844	-0.053164	0.752692	0.127391	0.643739
11407		12.997830	7.888318	-5.437713	-0.498488	-0.980962	-0.820307	-0.047949	0.755378	0.129186	0.640637
11408		12.285475	4.627183	-4.481030	-0.442905	-0.912228	-0.763232	-0.043152	0.757835	0.130877	0.637727
11409		10.477085	2.388905	-3.958271	-0.116559	-0.779555	-0.784645	-0.039634	0.759760	0.133709	0.635071
11410		8.617014	2.549308	-3.715045	0.277973	-0.691420	-0.799170	-0.037596	0.761287	0.137780	0.632492
11411		9.185714	3.884314	-4.091145	0.426959	-0.580578	-0.901965	-0.035899	0.762338	0.142732	0.630221
11412		8.855090	3.740768	-3.511262	0.296975	-0.400336	-0.772043	-0.034246	0.762927	0.146670	0.628695
11413		9.543913	4.504482	-2.648006	0.260095	-0.466560	-0.623194	-0.032899	0.763841	0.150012	0.626866
11414		9.732271	3.625465	-2.683860	0.058599	-0.437632	-0.484448	-0.031221	0.764801	0.152113	0.625273
11415		9.190423	3.046232	-2.552561	-0.024446	-0.539883	-0.425756	-0.029350	0.766138	0.153821	0.623306
11416		9.231333	2.191832	-2.466119	-0.114535	-0.571037	-0.445434	-0.027023	0.767554	0.155257	0.621310
11417		9.001173	1.268845	-1.676890	-0.175031	-0.541744	-0.489766	-0.024386	0.768841	0.156741	0.619453
11418		9.142420	0.466213	-0.765681	-0.132996	-0.573876	-0.499411	-0.021817	0.770200	0.158320	0.617456
11419		9.580695	0.296249	0.073065	-0.069469	-0.626044	-0.481937	-0.019532	0.771715	0.160117	0.615172
11420		9.868922	0.363129	0.825081	0.003243	-0.739278	-0.499390	-0.017337	0.773538	0.162151	0.612409
11421		9.759663	-0.286666	1.457479	0.111736	-0.879820	-0.547490	-0.015304	0.775718	0.164794	0.608991
11422		9.436728	-1.341111	1.911030	0.233085	-0.959212	-0.657156	-0.013307	0.778002	0.168178	0.605188
11423		9.137094	-1.936728	2.007901	0.288717	-1.006948	-0.792497	-0.011084	0.780269	0.172311	0.601138
11424		9.100775	-2.197348	1.253443	0.344058	-1.044328	-0.916005	-0.008650	0.782490	0.177033	0.596904
11425		9.450921	-1.527983	0.293544	0.355323	-1.038482	-1.006930	-0.006014	0.784560	0.182186	0.592653
11426		9.941607	-0.185440	-0.880474	0.296686	-1.033491	-1.032082	-0.003057	0.786552	0.187195	0.588459
11427		10.422074	0.826521	-1.896877	0.258217	-1.061741	-1.010623	0.000004	0.788605	0.192037	0.584144
11428		10.253334	0.859804	-2.477228	0.198075	-1.053110	-1.001256	0.003276	0.790601	0.196615	0.579898
11429		10.013638	-0.069619	-2.584525	0.222544	-1.112883	-0.975970	0.006426	0.792749	0.201199	0.575349
11430		9.966439	-0.501375	-1.779470	0.181095	-1.184396	-0.979076	0.009841	0.795054	0.205631	0.570533
11431		9.783398	-0.843575	-0.625555	0.111752	-1.228269	-1.011716	0.013658	0.797392	0.210011	0.565574
11432		9.719653	-0.901197	0.491340	0.004183	-1.301292	-1.052182	0.018111	0.799832	0.214200	0.560410
11433		10.153008	-0.868014	0.883289	-0.072245	-1.384356	-1.101177	0.023089	0.802378	0.218374	0.554950
11434		10.815773	-1.113105	0.338144	-0.160269	-1.490781	-1.168887	0.028739	0.805062	0.222529	0.549118
11435		11.183009	-1.959104	-0.298852	-0.152527	-1.608112	-1.238611	0.034674	0.807899	0.226977	0.542750
11436		10.867466	-2.528210	-0.287841	-0.148604	-1.666080	-1.305409	0.040855	0.810728	0.231659	0.536082
11437		10.424974	-1.937783	0.318187	-0.165473	-1.739276	-1.348621	0.047290	0.813596	0.236444	0.529074
11438		10.382069	-1.014974	1.416999	-0.254547	-1.837168	-1.380315	0.054302	0.816559	0.241067	0.521699
11439		10.888253	-0.347835	3.027093	-0.319509	-1.979731	-1.432959	0.061870	0.819682	0.245679	0.513746
11440		12.606701	-0.676989	3.975383	-0.295625	-2.163029	-1.544107	0.069875	0.823002	0.250726	0.504898
11441		15.209890	-2.465413	4.455486	-0.134945	-2.329116	-1.723888	0.077858	0.826380	0.256838	0.495044
11442		17.058127	-4.237722	4.208683	0.097590	-2.378608	-2.024204	0.085710	0.829380	0.264696	0.484478
11443		17.091038	-4.563417	3.833948	0.287032	-2.594446	-2.262286	0.093605	0.832406	0.273856	0.472590
11444		17.284061	-5.576285	2.904427	0.517938	-2.763229	-2.420299	0.101163	0.835444	0.284091	0.459448
11445		17.056351	-5.215822	3.526670	0.628371	-2.756469	-2.569620	0.108512	0.837988	0.295098	0.446004
11446		18.095397	-4.102417	2.265616	0.947302	-2.843609	-2.592621	0.114726	0.840552	0.306788	0.431498
11447		20.279579	-4.798912	0.337527	1.275989	-2.857275	-2.592785	0.119495	0.842983	0.319037	0.416312
11448		20.920135	-4.368699	-2.185155	1.258449	-2.876942	-2.601109	0.124386	0.845090	0.331180	0.400838
11449		22.245057	-0.939140	-3.371752	1.348053	-2.954283	-2.560833	0.128800	0.847086	0.343172	0.384823
11450		20.213480	2.796942	-4.827272	1.748892	-2.748070	-2.410326	0.130918	0.848888	0.355270	0.368826
11451		17.550243	8.678911	-6.143022	2.058847	-2.606206	-2.005488	0.130581	0.851026	0.366153	0.353038
11452		16.203095	12.914354	-10.553433	1.818033	-2.241359	-1.485204	0.129711	0.853113	0.374487	0.339311
11453		13.801898	13.824755	-14.081100	1.101655	-1.431722	-0.978225	0.129339	0.854208	0.379784	0.330704
11454		8.904821	11.906649	-14.435501	0.512351	-0.881861	-0.526177	0.129760	0.854911	0.382398	0.325671
11455		6.406288	9.902322	-14.716160	-0.140311	-0.303770	-0.132500	0.131108	0.855040	0.382501	0.324669
11456		4.179955	9.099086	-13.297155	-0.263737	0.305002	0.073053	0.131536	0.854550	0.381877	0.326515
11457		3.050215	8.852461	-11.989713	-0.419615	0.772933	0.222227	0.131360	0.853467	0.380622	0.330855
11458		2.972565	8.236224	-11.049295	-0.442023	0.929282	0.402667	0.130781	0.852489	0.378612	0.335876
11459		4.685679	7.828127	-10.184481	-0.890015	0.976985	0.768025	0.131314	0.851802	0.374261	0.342226
11460		5.511426	7.709909	-9.863272	-1.336048	1.004643	1.177627	0.133055	0.851525	0.367385	0.349614
11461		4.907448	8.815918	-9.204621	-1.462427	1.227953	1.490148	0.134248	0.851235	0.359048	0.358415
11462		4.237631	10.178927	-8.806163	-1.676912	1.427532	1.755585	0.135584	0.850840	0.349214	0.368427
11463		2.375998	9.793533	-8.726766	-1.736396	1.865227	2.058026	0.135703	0.849935	0.338153	0.380589
11464		0.331529	9.140927	-8.615992	-1.666964	2.333302	2.337951	0.134231	0.848472	0.326187	0.394563
11465		-1.125262	7.339702	-8.499409	-1.528495	2.748119	2.507885	0.130991	0.846231	0.313909	0.410116
11466		-2.272200	6.118066	-8.329645	-1.361824	3.013183	2.585070	0.126500	0.843374	0.301639	0.426301
11467		-2.923835	5.218194	-8.385280	-1.215648	3.061831	2.679654	0.120979	0.840244	0.289187	0.442409
11468		-2.170301	4.371657	-8.323360	-0.994367	3.028304	2.835820	0.114265	0.837205	0.276425	0.457843
11469		-1.820574	3.733995	-7.665076	-0.735881	3.161144	3.049585	0.105666	0.833895	0.263301	0.473420
11470		-1.570290	3.068060	-7.064132	-0.400289	3.361690	3.228020	0.094992	0.830131	0.250191	0.489146
11471		-1.386503	3.385438	-6.755595	0.015467	3.626424	3.429229	0.081648	0.825679	0.237215	0.505289
11472		-1.424899	4.206452	-7.396146	0.562513	3.890442	3.573269	0.065365	0.820441	0.224990	0.521520
11473		-1.201467	5.553789	-7.801611	1.055593	4.161565	3.581779	0.046624	0.814037	0.213914	0.537969
