// General information: 
//  MT Manager version: 2019.1.1 
//  XDA version: 2019.1.1 build 3010 rev 85319 built on 2019-03-01
// Device information: 
//  DeviceId: 00B48492
//  ProductCode: MTW2-3A7G6
//  Firmware Version: 4.6.0
//  Hardware Version: 2.0.0
// Device settings: 
//  Filter Profile: human(46.1)
//  Option Flags: Orientation Smoother Disabled, AHS Disabled, ICC Disabled
// Coordinate system: ENU
PacketCounter	SampleTimeFine	Acc_X	Acc_Y	Acc_Z	Gyr_X	Gyr_Y	Gyr_Z	Quat_q0	Quat_q1	Quat_q2	Quat_q3
10291		9.514648	-0.814852	-1.920251	-0.038353	0.043763	-0.077706	0.564736	0.277168	-0.731057	0.264209
10292		9.455850	-0.797005	-1.876076	-0.023686	0.039118	-0.074371	0.564949	0.277287	-0.730894	0.264079
10293		9.556017	-0.794873	-1.841878	-0.019930	0.041383	-0.072995	0.565158	0.277411	-0.730728	0.263963
10294		9.637584	-0.675618	-1.863858	-0.020973	0.042891	-0.069005	0.565374	0.277510	-0.730560	0.263861
10295		9.597349	-0.707264	-1.927061	-0.030129	0.042884	-0.072009	0.565601	0.277598	-0.730404	0.263714
10296		9.552725	-0.763460	-1.902789	-0.029113	0.035984	-0.066950	0.565801	0.277679	-0.730267	0.263578
10297		9.542221	-0.771319	-1.884102	-0.022844	0.031382	-0.065119	0.565967	0.277780	-0.730143	0.263459
10298		9.582526	-0.764842	-1.852108	-0.012691	0.032133	-0.064677	0.566126	0.277908	-0.729998	0.263385
10299		9.622025	-0.753799	-1.777971	-0.012448	0.032881	-0.061156	0.566276	0.278023	-0.729862	0.263318
10300		9.592628	-0.767164	-1.815883	-0.009849	0.031344	-0.062066	0.566426	0.278147	-0.729719	0.263261
10301		9.583581	-0.785393	-1.881743	-0.006475	0.022171	-0.061452	0.566529	0.278295	-0.729605	0.263198
10302		9.531411	-0.711130	-1.930915	-0.009141	0.025973	-0.059147	0.566654	0.278419	-0.729481	0.263142
10303		9.572287	-0.710166	-1.941565	-0.006684	0.021385	-0.057313	0.566750	0.278553	-0.729374	0.263089
10304		9.609501	-0.738578	-1.906455	-0.008288	0.023663	-0.058976	0.566863	0.278683	-0.729255	0.263037
10305		9.596039	-0.781589	-1.884610	-0.004326	0.026717	-0.061718	0.566981	0.278832	-0.729125	0.262988
10306		9.625365	-0.795321	-1.879540	0.003022	0.020619	-0.056238	0.567065	0.278987	-0.729003	0.262978
10307		9.560526	-0.731565	-1.871178	0.004920	0.024431	-0.060040	0.567160	0.279160	-0.728869	0.262964
10308		9.566864	-0.657608	-1.876423	0.003091	0.025943	-0.057588	0.567264	0.279312	-0.728732	0.262955
10309		9.555185	-0.662218	-1.816457	-0.000859	0.022867	-0.054831	0.567353	0.279452	-0.728618	0.262933
10310		9.611081	-0.734747	-1.846987	0.001603	0.018289	-0.053001	0.567426	0.279596	-0.728509	0.262923
10311		9.650884	-0.729525	-1.816159	0.005817	0.014483	-0.052240	0.567472	0.279758	-0.728412	0.262919
10312		9.633702	-0.685802	-1.791001	0.003135	0.018282	-0.049943	0.567540	0.279895	-0.728306	0.262922
10313		9.605817	-0.661830	-1.792375	0.009499	0.011436	-0.049491	0.567566	0.280061	-0.728217	0.262934
10314		9.589421	-0.623408	-1.809567	0.010939	0.013732	-0.045070	0.567597	0.280210	-0.728121	0.262975
10315		9.598916	-0.638496	-1.819973	0.013771	0.012970	-0.050091	0.567623	0.280389	-0.728021	0.263004
10316		9.578316	-0.673095	-1.871426	0.009960	0.012943	-0.050080	0.567662	0.280555	-0.727920	0.263024
10317		9.550352	-0.649361	-1.873032	0.008974	0.012172	-0.047486	0.567688	0.280712	-0.727833	0.263041
10318		9.585850	-0.717886	-1.876871	0.007226	0.011395	-0.046414	0.567718	0.280860	-0.727746	0.263059
10319		9.613897	-0.727964	-1.831075	0.005119	0.006799	-0.046104	0.567728	0.281008	-0.727681	0.263058
10320		9.612815	-0.762639	-1.868642	0.002160	0.004486	-0.045946	0.567741	0.281147	-0.727621	0.263049
10321		9.584709	-0.739027	-1.870988	-0.002505	0.006740	-0.046088	0.567761	0.281273	-0.727566	0.263021
10322		9.603681	-0.729479	-1.813851	0.002707	0.003712	-0.047913	0.567773	0.281423	-0.727504	0.263007
10323		9.614196	-0.749074	-1.867026	-0.002812	0.008246	-0.048206	0.567802	0.281554	-0.727442	0.262974
10324		9.614699	-0.744348	-1.866321	0.007966	0.006019	-0.051097	0.567821	0.281729	-0.727361	0.262974
10325		9.598089	-0.705469	-1.884276	0.014172	0.003755	-0.055503	0.567821	0.281941	-0.727278	0.262975
10326		9.552843	-0.647252	-1.905179	0.006995	0.005217	-0.056099	0.567843	0.282129	-0.727195	0.262956
10327		9.557721	-0.617543	-1.992742	-0.009382	0.001284	-0.050766	0.567860	0.282260	-0.727157	0.262881
10328		9.559225	-0.617054	-2.034154	-0.027168	0.013334	-0.052568	0.567957	0.282326	-0.727100	0.262760
10329		9.613365	-0.722807	-2.061772	-0.046365	0.010119	-0.049815	0.568055	0.282334	-0.727089	0.262569
10330		9.635483	-0.838818	-2.046942	-0.049761	0.006265	-0.049045	0.568153	0.282330	-0.727088	0.262365
10331		9.605110	-0.848087	-2.045519	-0.048730	0.012353	-0.052977	0.568268	0.282340	-0.727069	0.262159
10332		9.576246	-0.774476	-1.925476	-0.049928	0.010799	-0.053876	0.568387	0.282345	-0.727049	0.261949
10333		9.597618	-0.729003	-1.871982	-0.049376	0.010022	-0.055839	0.568498	0.282366	-0.727033	0.261729
10334		9.609659	-0.707743	-1.886928	-0.046315	0.010036	-0.057347	0.568612	0.282400	-0.727005	0.261523
10335		9.597859	-0.667999	-1.748208	-0.041162	0.014650	-0.059150	0.568733	0.282450	-0.726960	0.261331
10336		9.592589	-0.612716	-1.781384	-0.041080	0.007009	-0.059156	0.568834	0.282507	-0.726931	0.261132
10337		9.601214	-0.577549	-1.670260	-0.027993	0.010200	-0.058845	0.568920	0.282600	-0.726881	0.260981
10338		9.595758	-0.566280	-1.784033	-0.025634	0.002602	-0.054305	0.568977	0.282691	-0.726850	0.260846
10339		9.578808	-0.526738	-1.802114	-0.025292	0.006413	-0.053527	0.569038	0.282778	-0.726815	0.260714
10340		9.521766	-0.526881	-1.887679	-0.023224	0.005670	-0.052461	0.569100	0.282866	-0.726775	0.260596
10341		9.539592	-0.598910	-1.949328	-0.022905	0.004146	-0.050334	0.569145	0.282952	-0.726748	0.260478
10342		9.601404	-0.714646	-1.905721	-0.007971	0.005856	-0.052462	0.569184	0.283083	-0.726689	0.260416
10343		9.605722	-0.792672	-1.868058	0.010530	-0.003826	-0.055391	0.569161	0.283296	-0.726633	0.260392
10344		9.628641	-0.714235	-1.819026	0.029150	-0.005103	-0.054801	0.569115	0.283556	-0.726551	0.260439
10345		9.590611	-0.628062	-1.730246	0.038070	-0.011089	-0.053910	0.569025	0.283853	-0.726481	0.260507
10346		9.615524	-0.559359	-1.765724	0.045589	-0.008701	-0.052535	0.568939	0.284159	-0.726390	0.260614
10347		9.645426	-0.535157	-1.724945	0.037199	-0.003473	-0.047802	0.568869	0.284421	-0.726309	0.260708
10348		9.683715	-0.569102	-1.734326	0.036986	-0.009598	-0.049930	0.568788	0.284697	-0.726233	0.260794
10349		9.635445	-0.546692	-1.752701	0.039925	-0.012612	-0.048717	0.568682	0.284983	-0.726172	0.260881
10350		9.602637	-0.592756	-1.749101	0.046883	-0.014786	-0.044019	0.568560	0.285272	-0.726109	0.261010
10351		9.605726	-0.559834	-1.796029	0.050701	-0.014741	-0.044011	0.568425	0.285575	-0.726046	0.261147
10352		9.590372	-0.532203	-1.899590	0.052454	-0.013970	-0.045060	0.568300	0.285881	-0.725971	0.261292
10353		9.559537	-0.544384	-1.899695	0.055517	-0.013945	-0.046565	0.568164	0.286207	-0.725896	0.261440
10354		9.568035	-0.599290	-1.950769	0.049526	-0.016327	-0.044885	0.568033	0.286509	-0.725832	0.261572
10355		9.635132	-0.652622	-1.957983	0.045166	-0.015628	-0.042902	0.567900	0.286793	-0.725780	0.261690
10356		9.616690	-0.654623	-2.015772	0.041036	-0.014190	-0.045010	0.567791	0.287067	-0.725720	0.261794
10357		9.607348	-0.631704	-2.005060	0.031782	-0.012064	-0.046662	0.567695	0.287321	-0.725671	0.261859
10358		9.573658	-0.672928	-1.959194	0.023169	-0.012950	-0.044076	0.567613	0.287538	-0.725634	0.261903
10359		9.544705	-0.650672	-1.963459	0.025244	-0.019011	-0.041646	0.567495	0.287765	-0.725620	0.261948
10360		9.576954	-0.553056	-1.889606	0.017727	-0.010774	-0.045727	0.567431	0.287967	-0.725581	0.261971
10361		9.595432	-0.543780	-1.834015	0.012696	-0.012332	-0.039057	0.567351	0.288140	-0.725569	0.261988
10362		9.633756	-0.577778	-1.844166	0.006296	-0.016302	-0.044344	0.567281	0.288313	-0.725564	0.261965
10363		9.657210	-0.548450	-1.918822	0.002799	-0.012541	-0.043582	0.567220	0.288473	-0.725559	0.261933
10364		9.598539	-0.546473	-1.963960	0.005195	-0.014769	-0.040399	0.567154	0.288625	-0.725556	0.261919
10365		9.547145	-0.554168	-1.936857	0.013814	-0.013888	-0.042974	0.567072	0.288816	-0.725540	0.261927
10366		9.543611	-0.618892	-1.930356	0.019822	-0.016848	-0.043274	0.566980	0.289025	-0.725519	0.261954
10367		9.572484	-0.634056	-1.929140	0.028429	-0.021229	-0.036916	0.566843	0.289247	-0.725514	0.262021
10368		9.605452	-0.541635	-1.897764	0.031271	-0.016666	-0.043271	0.566734	0.289489	-0.725477	0.262091
10369		9.605970	-0.499244	-1.861348	0.022755	-0.019790	-0.034480	0.566606	0.289684	-0.725479	0.262146
10370		9.565000	-0.532088	-1.888198	0.012380	-0.016137	-0.032202	0.566510	0.289834	-0.725482	0.262182
10371		9.556408	-0.514969	-1.920081	0.006391	-0.018520	-0.030525	0.566404	0.289967	-0.725508	0.262191
10372		9.643262	-0.567767	-1.913296	0.008790	-0.020740	-0.027345	0.566287	0.290097	-0.725536	0.262221
10373		9.584959	-0.528343	-1.920967	0.003664	-0.020066	-0.026884	0.566175	0.290210	-0.725576	0.262229
10374		9.624886	-0.529287	-1.935574	-0.001587	-0.017090	-0.025066	0.566086	0.290297	-0.725609	0.262233
10375		9.616615	-0.556619	-2.047396	-0.006283	-0.014888	-0.025213	0.566003	0.290369	-0.725650	0.262218
10376		9.580955	-0.672604	-2.035620	0.001450	-0.011722	-0.027949	0.565932	0.290467	-0.725660	0.262235
10377		9.532265	-0.652444	-2.054150	0.011153	-0.012297	-0.026902	0.565837	0.290591	-0.725668	0.262281
10378		9.581416	-0.628500	-1.999943	0.011279	-0.014604	-0.028256	0.565741	0.290720	-0.725675	0.262325
10379		9.641103	-0.628473	-1.999219	0.006556	-0.007072	-0.029773	0.565675	0.290834	-0.725670	0.262355
10380		9.622173	-0.587185	-1.976431	-0.003145	-0.006505	-0.030815	0.565634	0.290920	-0.725668	0.262354
10381		9.565066	-0.552196	-2.024728	-0.017216	-0.005237	-0.029885	0.565609	0.290963	-0.725689	0.262301
10382		9.545555	-0.549936	-2.039797	-0.023454	-0.003021	-0.025494	0.565602	0.290967	-0.725713	0.262247
10383		9.583797	-0.540710	-1.969107	-0.024992	-0.003004	-0.020955	0.565583	0.290953	-0.725752	0.262195
10384		9.654066	-0.564834	-2.021571	-0.028047	-0.003051	-0.019435	0.565573	0.290923	-0.725791	0.262143
10385		9.602943	-0.573799	-1.993447	-0.033151	-0.002467	-0.026525	0.565575	0.290905	-0.725831	0.262046
10386		9.553399	-0.548420	-1.969092	-0.029260	0.000714	-0.021699	0.565584	0.290870	-0.725860	0.261986
10387		9.553543	-0.545774	-1.969128	-0.023702	0.001575	-0.022766	0.565582	0.290860	-0.725882	0.261940
10388		9.580312	-0.590799	-1.920366	-0.029587	0.002206	-0.023809	0.565601	0.290832	-0.725902	0.261875
10389		9.621654	-0.596087	-1.975089	-0.029714	0.004506	-0.022449	0.565618	0.290799	-0.725924	0.261813
10390		9.623377	-0.558951	-1.978754	-0.034283	0.004392	-0.023945	0.565649	0.290757	-0.725944	0.261737
10391		9.587441	-0.489219	-2.015298	-0.038023	0.007414	-0.019101	0.565684	0.290684	-0.725975	0.261659
10392		9.546511	-0.478430	-1.960031	-0.054458	0.005524	-0.019961	0.565743	0.290566	-0.726025	0.261521
10393		9.544772	-0.548842	-1.994005	-0.060137	0.006946	-0.017523	0.565805	0.290425	-0.726089	0.261368
10394		9.571222	-0.633019	-1.983031	-0.055266	0.010882	-0.015261	0.565877	0.290281	-0.726132	0.261250
10395		9.582552	-0.615065	-1.998083	-0.056645	0.008511	-0.019629	0.565943	0.290155	-0.726183	0.261106
10396		9.573268	-0.593074	-1.985803	-0.058938	0.008479	-0.016594	0.566015	0.290008	-0.726237	0.260966
10397		9.534460	-0.591807	-2.014208	-0.060283	0.014542	-0.017481	0.566104	0.289855	-0.726279	0.260824
10398		9.594601	-0.591114	-2.011430	-0.063105	0.015209	-0.020029	0.566210	0.289702	-0.726312	0.260672
10399		9.583599	-0.642131	-2.033015	-0.055477	0.015372	-0.020041	0.566299	0.289571	-0.726342	0.260541
10400		9.592596	-0.653516	-2.001662	-0.046866	0.016305	-0.022624	0.566390	0.289468	-0.726348	0.260440
10401		9.584947	-0.596961	-1.992074	-0.042955	0.019422	-0.025340	0.566483	0.289386	-0.726342	0.260345
10402		9.546675	-0.556449	-1.981552	-0.047284	0.014757	-0.022010	0.566567	0.289285	-0.726353	0.260244
10403		9.555662	-0.567840	-1.950094	-0.051553	0.018460	-0.022734	0.566665	0.289170	-0.726365	0.260125
10404		9.582826	-0.612771	-1.900213	-0.047739	0.018543	-0.022738	0.566767	0.289061	-0.726366	0.260022
10405		9.585825	-0.579939	-1.944284	-0.047869	0.020833	-0.021364	0.566866	0.288949	-0.726369	0.259923
10406		9.626782	-0.541226	-1.917214	-0.047827	0.015490	-0.020018	0.566951	0.288836	-0.726382	0.259825
10407		9.567719	-0.497344	-1.879453	-0.055867	0.013762	-0.019387	0.567034	0.288704	-0.726418	0.259692
10408		9.587083	-0.571117	-1.940689	-0.057931	0.014458	-0.020425	0.567130	0.288566	-0.726446	0.259555
10409		9.655518	-0.623562	-1.945986	-0.062759	0.018915	-0.019171	0.567241	0.288406	-0.726477	0.259406
10410		9.618274	-0.587544	-1.977509	-0.059989	0.015143	-0.021452	0.567342	0.288265	-0.726505	0.259260
10411		9.558964	-0.582317	-1.978189	-0.055982	0.016018	-0.017981	0.567431	0.288124	-0.726537	0.259134
10412		9.576205	-0.647339	-1.955362	-0.056731	0.015981	-0.019479	0.567530	0.287982	-0.726562	0.259005
10413		9.536439	-0.641508	-1.941402	-0.044743	0.015511	-0.021478	0.567606	0.287887	-0.726574	0.258909
10414		9.597954	-0.606328	-1.941844	-0.044178	0.014746	-0.023440	0.567690	0.287799	-0.726578	0.258813
10415		9.597358	-0.560438	-1.860170	-0.041217	0.011771	-0.022256	0.567749	0.287721	-0.726596	0.258722
10416		9.629402	-0.545650	-1.902120	-0.045021	0.011663	-0.022237	0.567818	0.287634	-0.726610	0.258625
10417		9.590833	-0.505660	-1.891947	-0.049058	0.010803	-0.018148	0.567879	0.287521	-0.726647	0.258515
10418		9.588632	-0.533114	-1.845699	-0.049055	0.010796	-0.018142	0.567947	0.287402	-0.726678	0.258409
10419		9.587761	-0.526210	-1.802777	-0.045573	0.012402	-0.020249	0.568011	0.287305	-0.726702	0.258308
10420		9.636653	-0.579557	-1.823506	-0.040407	0.006437	-0.019403	0.568053	0.287224	-0.726731	0.258226
10421		9.625944	-0.553990	-1.769210	-0.031011	0.002115	-0.019168	0.568058	0.287179	-0.726767	0.258165
10422		9.607725	-0.556687	-1.826055	-0.033407	-0.000986	-0.013449	0.568054	0.287106	-0.726817	0.258112
10423		9.590770	-0.525215	-1.886301	-0.038102	0.001168	-0.013560	0.568058	0.287022	-0.726873	0.258040
10424		9.600564	-0.542024	-1.898513	-0.039276	-0.000399	-0.014469	0.568068	0.286931	-0.726929	0.257960
10425		9.611604	-0.563039	-1.952563	-0.031519	0.005930	-0.012332	0.568077	0.286855	-0.726965	0.257923
10426		9.599468	-0.610862	-1.933846	-0.031098	-0.000943	-0.016464	0.568076	0.286799	-0.727008	0.257868
10427		9.578758	-0.643968	-1.945468	-0.016864	-0.001292	-0.013963	0.568041	0.286781	-0.727042	0.257867
10428		9.599614	-0.607158	-1.934286	-0.015877	-0.000509	-0.016523	0.568019	0.286765	-0.727066	0.257867
10429		9.610710	-0.589674	-1.949707	-0.016205	0.001000	-0.018618	0.567999	0.286763	-0.727086	0.257859
10430		9.620555	-0.606503	-1.961836	-0.020995	0.000103	-0.016039	0.567986	0.286734	-0.727113	0.257843
10431		9.591404	-0.586256	-1.964585	-0.024235	-0.000762	-0.017991	0.567969	0.286708	-0.727149	0.257806
10432		9.591512	-0.584082	-1.964707	-0.028179	0.001413	-0.016593	0.567970	0.286660	-0.727180	0.257768
10433		9.572134	-0.582551	-1.979367	-0.030244	0.002110	-0.017630	0.567972	0.286612	-0.727217	0.257715
10434		9.590572	-0.614159	-1.961332	-0.028882	0.004448	-0.013238	0.567981	0.286543	-0.727247	0.257686
10435		9.593118	-0.581856	-2.006680	-0.029020	-0.001669	-0.015406	0.567965	0.286496	-0.727296	0.257637
10436		9.591999	-0.575715	-1.964796	-0.023806	0.000766	-0.018571	0.567959	0.286472	-0.727319	0.257611
10437		9.581174	-0.589011	-1.949453	-0.019579	0.002416	-0.019176	0.567949	0.286460	-0.727338	0.257591
10438		9.589869	-0.601539	-1.919460	-0.016383	0.000215	-0.022076	0.567937	0.286468	-0.727349	0.257578
10439		9.649712	-0.562890	-1.878789	-0.016618	-0.000548	-0.018011	0.567910	0.286464	-0.727375	0.257569
10440		9.590059	-0.520535	-1.841868	-0.016946	0.000962	-0.020103	0.567900	0.286461	-0.727388	0.257560
10441		9.590131	-0.518502	-1.842066	-0.021827	-0.002993	-0.014842	0.567867	0.286435	-0.727432	0.257537
10442		9.579341	-0.608492	-1.904727	-0.029248	0.002869	-0.020167	0.567880	0.286393	-0.727456	0.257486
10443		9.590462	-0.628951	-1.959003	-0.023469	-0.000762	-0.016465	0.567860	0.286364	-0.727494	0.257456
10444		9.610050	-0.626244	-1.944606	-0.017034	-0.002092	-0.017415	0.567834	0.286355	-0.727519	0.257451
10445		9.572338	-0.629295	-2.016274	-0.021917	-0.000727	-0.020990	0.567818	0.286347	-0.727548	0.257413
10446		9.573584	-0.592495	-2.019731	-0.021021	-0.002991	-0.020867	0.567801	0.286337	-0.727578	0.257378
10447		9.573652	-0.590287	-2.020056	-0.018347	-0.001375	-0.016944	0.567772	0.286326	-0.727610	0.257364
10448		9.589680	-0.614017	-1.918316	-0.016796	-0.001335	-0.021470	0.567755	0.286328	-0.727629	0.257346
10449		9.639890	-0.632861	-1.943121	-0.020796	0.006168	-0.021362	0.567763	0.286314	-0.727636	0.257322
10450		9.609626	-0.646615	-1.942489	-0.013596	-0.003531	-0.024373	0.567737	0.286344	-0.727649	0.257309
10451		9.570618	-0.607288	-1.933103	-0.011254	-0.000401	-0.022540	0.567710	0.286372	-0.727661	0.257306
10452		9.571724	-0.532429	-1.897411	-0.010923	-0.001915	-0.020449	0.567679	0.286397	-0.727671	0.257317
10453		9.591301	-0.529609	-1.883004	-0.013974	-0.002013	-0.018925	0.567645	0.286406	-0.727696	0.257312
10454		9.581694	-0.546803	-1.910029	-0.015054	-0.000529	-0.022516	0.567629	0.286417	-0.727708	0.257301
10455		9.589274	-0.593698	-1.877363	-0.008141	-0.005648	-0.022764	0.567579	0.286462	-0.727730	0.257300
10456		9.608771	-0.590738	-1.863489	-0.010715	-0.009546	-0.020534	0.567522	0.286492	-0.727763	0.257296
10457		9.622151	-0.580548	-1.963378	-0.011399	0.001878	-0.021148	0.567502	0.286511	-0.727771	0.257300
10458		9.583081	-0.541329	-1.953900	-0.010955	-0.004986	-0.025296	0.567468	0.286551	-0.727785	0.257289
10459		9.541784	-0.571056	-1.938675	-0.010108	-0.007236	-0.017646	0.567408	0.286573	-0.727821	0.257293
10460		9.552657	-0.553442	-1.954582	-0.011756	-0.005005	-0.019265	0.567367	0.286590	-0.727845	0.257296
10461		9.580995	-0.603767	-1.949485	-0.007535	-0.003339	-0.019871	0.567321	0.286623	-0.727864	0.257310
10462		9.629932	-0.618963	-1.932682	-0.005800	-0.002521	-0.020925	0.567283	0.286657	-0.727873	0.257331
10463		9.639854	-0.635514	-1.945195	-0.008284	-0.003370	-0.021371	0.567239	0.286693	-0.727890	0.257337
10464		9.601073	-0.672851	-2.013983	-0.001281	-0.005429	-0.024298	0.567189	0.286758	-0.727895	0.257362
10465		9.533553	-0.581362	-2.010295	-0.003347	-0.004739	-0.025329	0.567139	0.286824	-0.727904	0.257373
10466		9.555407	-0.547612	-2.040902	-0.007929	0.003503	-0.023243	0.567129	0.286855	-0.727893	0.257391
10467		9.603428	-0.596920	-2.020762	-0.008281	-0.003377	-0.021366	0.567085	0.286891	-0.727911	0.257397
10468		9.622055	-0.628242	-2.003257	-0.004394	-0.000196	-0.024060	0.567059	0.286939	-0.727905	0.257420
10469		9.601748	-0.660785	-2.014761	0.000060	0.002237	-0.028723	0.567034	0.287017	-0.727885	0.257444
10470		9.572324	-0.601971	-1.978057	0.004763	0.000109	-0.028625	0.566999	0.287111	-0.727859	0.257490
10471		9.572503	-0.599246	-1.978022	0.004014	0.000077	-0.030124	0.566963	0.287208	-0.727837	0.257521
10472		9.583238	-0.542842	-1.954234	-0.000589	-0.000073	-0.024076	0.566929	0.287272	-0.727824	0.257562
10473		9.611874	-0.592635	-1.948576	-0.009426	0.003428	-0.026234	0.566918	0.287312	-0.727817	0.257561
10474		9.603381	-0.575067	-1.978359	-0.010257	0.000346	-0.025061	0.566902	0.287346	-0.727816	0.257562
10475		9.563320	-0.570103	-1.965475	-0.008855	0.002676	-0.028199	0.566891	0.287396	-0.727807	0.257556
10476		9.561384	-0.597987	-1.920139	-0.006038	0.002017	-0.025665	0.566873	0.287449	-0.727792	0.257578
10477		9.582354	-0.598229	-1.947267	-0.002903	0.005171	-0.029857	0.566864	0.287519	-0.727766	0.257593
10478		9.601206	-0.629051	-1.929241	0.002135	0.001537	-0.027674	0.566840	0.287595	-0.727742	0.257630
10479		9.610652	-0.568642	-1.863220	0.001957	0.000757	-0.031141	0.566810	0.287689	-0.727720	0.257652
10480		9.583448	-0.517440	-1.910968	0.002211	-0.003804	-0.026383	0.566765	0.287768	-0.727712	0.257686
10481		9.594324	-0.499281	-1.926507	-0.008597	-0.001900	-0.023433	0.566730	0.287809	-0.727723	0.257687
10482		9.603120	-0.511947	-1.896761	-0.009736	-0.000406	-0.019496	0.566703	0.287826	-0.727731	0.257704
10483		9.591541	-0.559826	-1.878731	-0.007691	-0.004159	-0.023313	0.566658	0.287872	-0.727747	0.257706
10484		9.611891	-0.632828	-1.942574	-0.002905	-0.003229	-0.025887	0.566620	0.287936	-0.727744	0.257726
10485		9.612809	-0.595961	-1.946004	0.000482	-0.004631	-0.025323	0.566565	0.288013	-0.727748	0.257751
10486		9.593336	-0.594380	-1.961203	0.001388	-0.006889	-0.025204	0.566506	0.288093	-0.727750	0.257784
10487		9.565103	-0.578018	-2.006370	0.000819	-0.006143	-0.023235	0.566442	0.288166	-0.727761	0.257813
10488		9.584629	-0.575061	-1.992270	0.000249	-0.005397	-0.021267	0.566384	0.288231	-0.727765	0.257857
10489		9.573056	-0.622992	-1.974634	0.000977	-0.008434	-0.024615	0.566313	0.288312	-0.727780	0.257880
10490		9.582603	-0.601428	-1.948419	0.004800	-0.005225	-0.019789	0.566249	0.288378	-0.727782	0.257940
10491		9.603332	-0.602328	-1.976507	0.009900	-0.008869	-0.025126	0.566165	0.288487	-0.727786	0.257993
10492		9.583808	-0.600947	-1.991867	0.010314	-0.007330	-0.025710	0.566093	0.288592	-0.727779	0.258053
10493		9.573826	-0.580167	-1.980317	0.008012	-0.007409	-0.022688	0.566014	0.288685	-0.727784	0.258108
10494		9.533543	-0.576088	-1.968281	0.013292	-0.010272	-0.024559	0.565926	0.288798	-0.727783	0.258177
10495		9.594027	-0.540735	-1.970285	0.005944	-0.006731	-0.023715	0.565853	0.288888	-0.727788	0.258223
10496		9.574490	-0.539458	-1.985597	0.000412	-0.007702	-0.022636	0.565788	0.288961	-0.727796	0.258260
10497		9.604044	-0.555040	-1.983563	0.001489	-0.000792	-0.023011	0.565742	0.289027	-0.727791	0.258301
10498		9.602671	-0.621673	-1.977650	0.000666	-0.003874	-0.021839	0.565691	0.289089	-0.727791	0.258344
10499		9.593946	-0.604660	-2.007859	0.005450	-0.002939	-0.024413	0.565633	0.289174	-0.727785	0.258392
10500		9.604748	-0.586792	-2.023353	0.010001	-0.002760	-0.022937	0.565574	0.289265	-0.727768	0.258468
10501		9.604321	-0.546665	-1.984546	0.006950	-0.002873	-0.021414	0.565510	0.289344	-0.727764	0.258530
10502		9.595057	-0.491610	-1.975714	0.003721	-0.003770	-0.023355	0.565457	0.289420	-0.727758	0.258579
10503		9.563663	-0.502452	-1.933328	0.001419	-0.003848	-0.020335	0.565396	0.289481	-0.727765	0.258622
10504		9.573553	-0.592058	-1.981728	0.000452	-0.001564	-0.012940	0.565342	0.289505	-0.727773	0.258692
10505		9.613737	-0.665101	-2.030513	0.007949	0.000991	-0.019119	0.565287	0.289574	-0.727761	0.258769
10506		9.563569	-0.642490	-2.005661	0.023286	-0.006863	-0.030276	0.565205	0.289731	-0.727729	0.258863
10507		9.573730	-0.586561	-1.982507	0.031744	-0.008793	-0.022690	0.565087	0.289894	-0.727707	0.259001
10508		9.584499	-0.496718	-1.962434	0.026461	-0.005939	-0.020818	0.564990	0.290028	-0.727680	0.259136
10509		9.574483	-0.476522	-1.950542	0.010183	-0.001989	-0.019463	0.564922	0.290108	-0.727673	0.259216
10510		9.592778	-0.542653	-1.929897	0.004651	-0.002965	-0.018385	0.564864	0.290166	-0.727670	0.259284
10511		9.613496	-0.616475	-1.993378	-0.000634	-0.000109	-0.016516	0.564814	0.290202	-0.727676	0.259336
10512		9.614784	-0.618747	-2.035503	-0.003686	-0.000222	-0.014995	0.564772	0.290223	-0.727682	0.259390
10513		9.585896	-0.637638	-2.076922	0.000348	0.000679	-0.019065	0.564727	0.290270	-0.727680	0.259440
10514		9.565951	-0.598489	-2.052393	-0.001312	0.002896	-0.020681	0.564701	0.290310	-0.727666	0.259489
10515		9.566134	-0.596484	-2.052124	-0.001312	0.002895	-0.020680	0.564669	0.290355	-0.727658	0.259532
10516		9.605339	-0.592630	-2.022675	-0.009147	0.001840	-0.016585	0.564645	0.290360	-0.727663	0.259563
10517		9.594845	-0.606619	-2.007131	-0.011382	0.004807	-0.016236	0.564628	0.290358	-0.727670	0.259585
10518		9.605126	-0.623172	-2.018924	-0.018749	0.005254	-0.020235	0.564635	0.290343	-0.727673	0.259575
10519		9.555019	-0.600528	-1.993551	-0.019730	0.004462	-0.017683	0.564631	0.290322	-0.727690	0.259563
10520		9.574105	-0.559119	-1.939607	-0.021226	0.004385	-0.020675	0.564639	0.290303	-0.727698	0.259542
10521		9.564874	-0.576573	-1.966030	-0.022947	0.006634	-0.014781	0.564643	0.290259	-0.727717	0.259530
10522		9.576913	-0.562690	-2.023093	-0.026240	0.002684	-0.014052	0.564642	0.290206	-0.727746	0.259508
10523		9.586626	-0.613535	-2.031970	-0.023867	0.005805	-0.019733	0.564652	0.290178	-0.727761	0.259477
10524		9.566664	-0.574151	-2.007169	-0.021048	0.005166	-0.017206	0.564658	0.290145	-0.727773	0.259467
10525		9.566340	-0.606535	-2.003641	-0.021213	0.007455	-0.015825	0.564664	0.290109	-0.727786	0.259459
10526		9.586099	-0.603610	-1.988418	-0.021212	0.007453	-0.015824	0.564675	0.290071	-0.727792	0.259458
10527		9.596421	-0.620126	-2.000206	-0.023522	0.004293	-0.017646	0.564676	0.290039	-0.727814	0.259432
10528		9.597200	-0.583525	-2.002709	-0.031795	0.010061	-0.016915	0.564716	0.289964	-0.727828	0.259390
10529		9.596748	-0.543334	-1.962961	-0.028061	0.007170	-0.014273	0.564728	0.289903	-0.727853	0.259361
10530		9.587589	-0.560938	-1.989228	-0.035826	0.009140	-0.012841	0.564762	0.289810	-0.727879	0.259318
10531		9.605593	-0.588690	-1.928796	-0.032772	0.009258	-0.014358	0.564789	0.289733	-0.727904	0.259275
10532		9.596973	-0.571782	-1.958027	-0.030126	0.007835	-0.015292	0.564814	0.289667	-0.727922	0.259246
10533		9.596704	-0.604199	-1.954477	-0.029377	0.007869	-0.013794	0.564829	0.289599	-0.727948	0.259214
10534		9.607538	-0.586394	-1.969291	-0.029614	0.004035	-0.014591	0.564840	0.289535	-0.727977	0.259181
10535		9.569167	-0.552308	-2.001360	-0.028356	0.003349	-0.007555	0.564829	0.289455	-0.728023	0.259164
10536		9.539724	-0.533248	-2.003240	-0.039038	0.011283	-0.009918	0.564872	0.289338	-0.728052	0.259122
10537		9.549661	-0.584160	-2.011749	-0.045073	0.011004	-0.014375	0.564922	0.289223	-0.728088	0.259038
10538		9.590530	-0.656064	-2.060054	-0.043578	0.011073	-0.011379	0.564973	0.289099	-0.728121	0.258974
10539		9.600541	-0.706682	-2.068562	-0.043677	0.013334	-0.017492	0.565034	0.288996	-0.728145	0.258889
10540		9.591280	-0.651298	-2.058076	-0.038724	0.015072	-0.016597	0.565099	0.288899	-0.728152	0.258835
10541		9.541223	-0.628847	-2.031989	-0.038213	0.011274	-0.015903	0.565143	0.288809	-0.728176	0.258771
10542		9.550898	-0.607099	-2.004106	-0.037804	0.012813	-0.016478	0.565199	0.288715	-0.728190	0.258714
10543		9.599565	-0.583504	-1.946700	-0.036650	0.014388	-0.015558	0.565251	0.288623	-0.728204	0.258662
10544		9.589741	-0.563011	-1.933290	-0.035563	0.012913	-0.011986	0.565299	0.288517	-0.728222	0.258624
10545		9.590060	-0.561060	-1.932274	-0.040103	0.012705	-0.013451	0.565348	0.288411	-0.728249	0.258563
10546		9.589054	-0.555580	-1.889166	-0.034982	0.012163	-0.013944	0.565393	0.288318	-0.728264	0.258524
10547		9.599918	-0.537741	-1.903619	-0.031486	0.005448	-0.012126	0.565401	0.288242	-0.728301	0.258487
10548		9.581068	-0.609171	-1.954471	-0.034130	0.006856	-0.011180	0.565423	0.288149	-0.728334	0.258451
10549		9.591436	-0.625835	-1.966479	-0.028838	0.004033	-0.013064	0.565423	0.288086	-0.728371	0.258418
10550		9.553073	-0.591463	-1.998406	-0.028836	0.004030	-0.013062	0.565430	0.288017	-0.728403	0.258389
10551		9.561194	-0.566880	-1.928947	-0.028429	0.005572	-0.013636	0.565436	0.287955	-0.728433	0.258359
10552		9.581759	-0.602168	-1.953254	-0.030569	0.006245	-0.007157	0.565443	0.287862	-0.728468	0.258349
10553		9.631072	-0.617166	-1.935900	-0.033950	0.004556	-0.012557	0.565452	0.287782	-0.728510	0.258300
10554		9.611390	-0.650815	-1.947387	-0.031822	0.009996	-0.009326	0.565479	0.287683	-0.728535	0.258280
10555		9.542973	-0.633523	-1.978644	-0.023711	0.003489	-0.013550	0.565471	0.287637	-0.728565	0.258264
10556		9.584799	-0.636573	-2.033209	-0.020832	0.005908	-0.013678	0.565473	0.287595	-0.728578	0.258269
10557		9.585019	-0.634894	-2.032696	-0.019682	0.007486	-0.012758	0.565473	0.287553	-0.728593	0.258275
10558		9.565811	-0.634046	-2.046717	-0.016968	0.009133	-0.016347	0.565484	0.287527	-0.728588	0.258292
10559		9.585124	-0.665743	-2.028778	-0.014389	0.004672	-0.014647	0.565468	0.287511	-0.728602	0.258308
10560		9.574732	-0.680047	-2.013261	-0.007138	0.006530	-0.016768	0.565458	0.287514	-0.728592	0.258352
10561		9.583313	-0.621092	-1.945794	-0.012700	0.013902	-0.019589	0.565481	0.287506	-0.728570	0.258374
10562		9.593481	-0.671850	-1.954619	-0.011674	0.006317	-0.018234	0.565477	0.287505	-0.728564	0.258399
10563		9.613607	-0.634532	-1.941811	-0.009715	0.010985	-0.018463	0.565483	0.287506	-0.728548	0.258430
10564		9.583869	-0.649416	-1.940542	-0.012928	0.010070	-0.020402	0.565498	0.287505	-0.728530	0.258451
10565		9.566831	-0.582677	-2.001828	-0.015236	0.009962	-0.017387	0.565506	0.287488	-0.728526	0.258464
10566		9.575984	-0.595703	-1.971267	-0.018449	0.009046	-0.019326	0.565525	0.287466	-0.728520	0.258465
10567		9.565691	-0.609548	-1.955415	-0.012926	0.010066	-0.020397	0.565535	0.287467	-0.728507	0.258477
10568		9.576226	-0.625736	-1.967132	-0.011087	0.005572	-0.020194	0.565531	0.287477	-0.728498	0.258500
10569		9.586784	-0.641921	-1.978784	-0.007403	0.011086	-0.021466	0.565538	0.287496	-0.728474	0.258531
10570		9.606896	-0.604107	-1.965851	-0.006062	0.007329	-0.026791	0.565543	0.287538	-0.728446	0.258553
10571		9.566830	-0.600482	-1.952645	-0.006953	0.004238	-0.018150	0.565520	0.287555	-0.728446	0.258584
10572		9.556480	-0.614542	-1.937077	-0.013328	0.008511	-0.019817	0.565529	0.287551	-0.728434	0.258603
10573		9.586791	-0.595484	-1.936646	-0.015637	0.008401	-0.016803	0.565532	0.287533	-0.728435	0.258614
10574		9.567291	-0.628882	-1.948158	-0.015458	0.006118	-0.018196	0.565533	0.287522	-0.728434	0.258626
10575		9.618120	-0.646454	-1.972836	-0.011485	0.004018	-0.019613	0.565518	0.287532	-0.728438	0.258637
10576		9.597762	-0.607663	-1.947586	-0.013729	0.006961	-0.019239	0.565522	0.287527	-0.728431	0.258653
10577		9.580031	-0.609518	-2.003809	-0.014808	0.008431	-0.022796	0.565532	0.287533	-0.728422	0.258650
10578		9.569789	-0.623044	-1.987990	-0.016469	0.010637	-0.024386	0.565558	0.287539	-0.728399	0.258651
10579		9.590954	-0.622845	-2.014802	-0.015274	0.003828	-0.019583	0.565548	0.287538	-0.728408	0.258648
10580		9.580373	-0.671117	-1.996754	-0.012739	0.007764	-0.021771	0.565556	0.287545	-0.728394	0.258662
10581		9.589791	-0.649407	-1.968978	-0.012155	0.007027	-0.023735	0.565559	0.287563	-0.728384	0.258663
10582		9.579759	-0.628667	-1.955937	-0.012738	0.007760	-0.021768	0.565567	0.287570	-0.728371	0.258677
10583		9.589406	-0.572522	-1.930616	-0.013075	0.009267	-0.023830	0.565579	0.287583	-0.728356	0.258678
10584		9.579360	-0.551712	-1.917496	-0.020322	0.007383	-0.021714	0.565596	0.287570	-0.728352	0.258666
10585		9.580853	-0.587041	-1.956504	-0.016774	0.006794	-0.017707	0.565596	0.287555	-0.728358	0.258668
10586		9.580848	-0.619363	-1.953566	-0.013942	0.003118	-0.020048	0.565588	0.287553	-0.728363	0.258671
10587		9.570512	-0.633175	-1.938263	-0.012552	0.005473	-0.023154	0.565585	0.287571	-0.728359	0.258671
10588		9.602025	-0.651325	-1.977573	-0.013720	0.006940	-0.019221	0.565591	0.287560	-0.728354	0.258682
10589		9.602292	-0.649077	-1.977012	-0.010083	0.006356	-0.022703	0.565586	0.287582	-0.728345	0.258693
10590		9.581822	-0.610159	-1.951686	-0.010484	0.004809	-0.022131	0.565583	0.287597	-0.728337	0.258708
10591		9.552260	-0.590517	-1.953605	-0.015600	0.005314	-0.021631	0.565581	0.287601	-0.728339	0.258700
10592		9.583573	-0.643304	-1.990544	-0.013041	0.003917	-0.015091	0.565566	0.287590	-0.728346	0.258728
10593		9.564540	-0.607776	-2.007389	-0.007028	0.006505	-0.024214	0.565560	0.287625	-0.728330	0.258745
10594		9.582600	-0.635535	-1.947400	-0.003389	0.005924	-0.027696	0.565558	0.287680	-0.728301	0.258771
10595		9.593263	-0.651378	-1.959261	0.007741	0.005725	-0.023741	0.565527	0.287757	-0.728269	0.258842
10596		9.613055	-0.613860	-1.946579	0.006940	0.002632	-0.022600	0.565490	0.287833	-0.728241	0.258919
10597		9.581930	-0.591447	-1.906459	0.001823	0.003133	-0.022101	0.565456	0.287892	-0.728226	0.258969
10598		9.601547	-0.588300	-1.891370	-0.008413	0.004136	-0.021104	0.565445	0.287913	-0.728217	0.258995
10599		9.613521	-0.641964	-1.943169	-0.011865	0.002433	-0.019017	0.565424	0.287922	-0.728227	0.259004
10600		9.583787	-0.657059	-1.942671	-0.011064	0.005524	-0.020155	0.565422	0.287925	-0.728221	0.259021
10601		9.587140	-0.626508	-2.029106	-0.012942	0.003899	-0.022568	0.565412	0.287941	-0.728223	0.259018
10602		9.564848	-0.619072	-1.959591	-0.009425	-0.002786	-0.020788	0.565377	0.287970	-0.728234	0.259032
10603		9.566492	-0.619745	-2.001846	-0.009702	0.001772	-0.025477	0.565359	0.288009	-0.728233	0.259030
10604		9.568121	-0.654705	-2.041348	-0.010288	0.002504	-0.023510	0.565347	0.288038	-0.728227	0.259041
10605		9.563769	-0.643061	-1.914796	-0.002517	0.000617	-0.024954	0.565315	0.288097	-0.728220	0.259064
10606		9.595355	-0.626683	-1.957067	-0.000299	0.000734	-0.020479	0.565279	0.288143	-0.728212	0.259114
10607		9.623889	-0.604223	-1.915095	0.000877	-0.000734	-0.024408	0.565236	0.288213	-0.728206	0.259149
10608		9.601620	-0.562518	-1.848083	-0.004089	0.000533	-0.020452	0.565206	0.288246	-0.728204	0.259184
10609		9.601665	-0.595030	-1.845732	-0.002821	-0.003214	-0.018296	0.565150	0.288286	-0.728218	0.259219
10610		9.613672	-0.580068	-1.903348	-0.006084	-0.007200	-0.017607	0.565090	0.288316	-0.728244	0.259245
10611		9.594208	-0.613930	-1.916208	-0.001742	-0.004681	-0.014744	0.565023	0.288349	-0.728266	0.259292
10612		9.585248	-0.597308	-1.946466	-0.005932	-0.006428	-0.014150	0.564960	0.288368	-0.728293	0.259331
10613		9.586726	-0.598767	-1.989254	-0.003618	-0.006309	-0.017156	0.564893	0.288407	-0.728319	0.259362
10614		9.565738	-0.595151	-1.962657	-0.007467	-0.009563	-0.014502	0.564822	0.288427	-0.728357	0.259389
10615		9.604504	-0.556951	-1.936521	-0.007807	-0.008058	-0.016561	0.564754	0.288454	-0.728394	0.259403
10616		9.625399	-0.626130	-1.959557	-0.017096	-0.003208	-0.013243	0.564718	0.288430	-0.728430	0.259407
10617		9.584985	-0.623784	-1.947724	-0.008849	-0.011925	-0.011399	0.564630	0.288441	-0.728487	0.259427
10618		9.583367	-0.619416	-1.906613	-0.013171	-0.008342	-0.012035	0.564570	0.288426	-0.728535	0.259436
10619		9.554896	-0.603871	-1.951886	-0.011446	-0.007488	-0.013077	0.564504	0.288429	-0.728581	0.259449
10620		9.577207	-0.607437	-2.022317	-0.014895	-0.009198	-0.010991	0.564440	0.288415	-0.728632	0.259459
10621		9.636923	-0.640140	-2.018563	-0.016905	-0.005494	-0.014632	0.564391	0.288405	-0.728677	0.259450
10622		9.596606	-0.706455	-2.001681	-0.013511	-0.006839	-0.014090	0.564337	0.288402	-0.728716	0.259461
10623		9.536825	-0.739457	-2.002121	-0.010856	-0.008224	-0.015038	0.564271	0.288415	-0.728760	0.259469
10624		9.566631	-0.686045	-2.005459	-0.014440	-0.004602	-0.014181	0.564228	0.288403	-0.728795	0.259477
10625		9.594917	-0.629689	-1.966754	-0.012976	-0.010629	-0.013426	0.564153	0.288408	-0.728851	0.259478
10626		9.545537	-0.612010	-1.984486	-0.019160	-0.002571	-0.014243	0.564124	0.288380	-0.728886	0.259472
10627		9.576844	-0.595762	-2.027499	-0.022964	-0.008885	-0.016440	0.564074	0.288364	-0.728946	0.259431
10628		9.566366	-0.610019	-2.013441	-0.020103	-0.006442	-0.016559	0.564037	0.288345	-0.728990	0.259407
10629		9.575410	-0.657786	-1.982108	-0.014246	-0.006887	-0.015573	0.563981	0.288348	-0.729034	0.259403
10630		9.554480	-0.654169	-1.955419	-0.010455	-0.006681	-0.015601	0.563927	0.288355	-0.729068	0.259418
10631		9.594656	-0.618901	-1.971447	-0.011643	-0.011326	-0.013898	0.563849	0.288366	-0.729123	0.259421
10632		9.575085	-0.583817	-1.989390	-0.013453	-0.003794	-0.016704	0.563810	0.288367	-0.729150	0.259428
10633		9.573574	-0.579177	-1.947998	-0.012968	-0.010638	-0.013421	0.563735	0.288371	-0.729206	0.259429
10634		9.585543	-0.633171	-2.001047	-0.020141	-0.003401	-0.011698	0.563700	0.288334	-0.729248	0.259427
10635		9.585616	-0.665955	-1.999289	-0.012915	-0.007584	-0.016042	0.563640	0.288343	-0.729292	0.259425
10636		9.566252	-0.699781	-2.012316	-0.009318	-0.005096	-0.014674	0.563588	0.288351	-0.729319	0.259451
10637		9.595940	-0.646231	-2.015645	-0.008931	-0.009655	-0.017469	0.563517	0.288380	-0.729361	0.259457
10638		9.565964	-0.627293	-2.018621	-0.010796	-0.005180	-0.017649	0.563470	0.288398	-0.729385	0.259471
10639		9.546502	-0.626497	-2.034026	-0.018030	-0.007110	-0.015531	0.563418	0.288390	-0.729435	0.259453
10640		9.586830	-0.625358	-2.047292	-0.021222	-0.001946	-0.015233	0.563395	0.288360	-0.729469	0.259439
10641		9.596036	-0.673265	-2.015802	-0.019944	-0.005693	-0.013087	0.563348	0.288337	-0.729521	0.259424
10642		9.576561	-0.672539	-2.031279	-0.013649	-0.007632	-0.017524	0.563296	0.288346	-0.729557	0.259422
10643		9.555748	-0.668622	-2.004231	-0.015072	0.001448	-0.020889	0.563279	0.288354	-0.729571	0.259413
10644		9.606556	-0.650876	-2.031972	-0.013053	-0.002257	-0.017256	0.563246	0.288356	-0.729592	0.259422
10645		9.566150	-0.613744	-2.021901	-0.013792	-0.002300	-0.018743	0.563210	0.288365	-0.729618	0.259418
10646		9.576749	-0.629796	-2.034701	-0.016447	-0.000925	-0.017788	0.563186	0.288361	-0.729638	0.259418
10647		9.566652	-0.678552	-2.017679	-0.016446	-0.000926	-0.017786	0.563158	0.288357	-0.729665	0.259409
10648		9.596551	-0.658937	-2.018082	-0.011479	-0.002171	-0.021748	0.563128	0.288381	-0.729677	0.259413
10649		9.565431	-0.671368	-1.975955	-0.009607	-0.000540	-0.019337	0.563094	0.288402	-0.729691	0.259424
10650		9.587875	-0.673909	-2.045626	-0.012263	0.000834	-0.018381	0.563072	0.288406	-0.729701	0.259439
10651		9.567140	-0.670003	-2.018222	-0.012412	0.000062	-0.021832	0.563047	0.288427	-0.729713	0.259434
10652		9.579049	-0.654198	-2.075380	-0.018510	-0.000290	-0.018790	0.563032	0.288414	-0.729735	0.259422
10653		9.577769	-0.649081	-2.033214	-0.018462	0.002766	-0.021406	0.563025	0.288413	-0.729748	0.259401
10654		9.576513	-0.643889	-1.990946	-0.020182	0.001901	-0.020361	0.563022	0.288397	-0.729764	0.259380
10655		9.575241	-0.638747	-1.948724	-0.020181	0.001899	-0.020360	0.563013	0.288387	-0.729784	0.259355
10656		9.576845	-0.639264	-1.990837	-0.019442	0.001939	-0.018871	0.563006	0.288372	-0.729799	0.259344
10657		9.557535	-0.638178	-2.005635	-0.017176	-0.000985	-0.019261	0.562980	0.288372	-0.729825	0.259328
10658		9.587708	-0.652877	-2.003404	-0.010491	0.004748	-0.022029	0.562974	0.288390	-0.729816	0.259346
10659		9.587872	-0.650638	-2.003348	-0.010729	-0.002140	-0.020249	0.562937	0.288413	-0.729835	0.259348
10660		9.557994	-0.631429	-2.005584	-0.012012	0.001602	-0.022385	0.562922	0.288434	-0.729835	0.259356
10661		9.568977	-0.681601	-2.015965	-0.014123	-0.000814	-0.020777	0.562895	0.288448	-0.729854	0.259347
10662		9.558558	-0.661241	-2.003392	-0.013339	0.002285	-0.021903	0.562885	0.288459	-0.729856	0.259349
10663		9.619972	-0.660936	-2.043397	-0.015405	0.002926	-0.022910	0.562877	0.288471	-0.729863	0.259335
10664		9.569269	-0.639981	-2.017869	-0.015995	0.003651	-0.020944	0.562874	0.288469	-0.729866	0.259333
10665		9.550014	-0.638753	-2.032479	-0.018844	0.001190	-0.020823	0.562861	0.288466	-0.729886	0.259310
10666		9.559020	-0.617281	-2.005097	-0.016385	0.002097	-0.020377	0.562854	0.288461	-0.729895	0.259304
10667		9.589594	-0.666303	-2.000368	-0.017870	0.008116	-0.021108	0.562865	0.288452	-0.729894	0.259294
10668		9.579562	-0.680387	-1.985086	-0.015992	0.003645	-0.020937	0.562862	0.288450	-0.729898	0.259291
10669		9.580888	-0.646309	-2.029366	-0.013723	0.000725	-0.021330	0.562841	0.288464	-0.729911	0.259284
10670		9.540733	-0.643545	-2.016575	-0.014661	0.002958	-0.021413	0.562834	0.288471	-0.729913	0.259285
10671		9.579453	-0.604530	-1.989138	-0.017709	0.002772	-0.019891	0.562824	0.288466	-0.729928	0.259271
10672		9.588719	-0.617812	-1.959672	-0.016075	-0.002480	-0.015710	0.562791	0.288455	-0.729956	0.259275
10673		9.578559	-0.632270	-1.944923	-0.013922	0.002997	-0.019923	0.562776	0.288461	-0.729966	0.259274
10674		9.599574	-0.631710	-1.972467	-0.015481	-0.003209	-0.017673	0.562746	0.288454	-0.729994	0.259270
10675		9.559327	-0.629369	-1.959982	-0.015293	0.000618	-0.016831	0.562720	0.288448	-0.730016	0.259270
10676		9.560916	-0.630118	-2.002169	-0.016622	0.001299	-0.016351	0.562704	0.288428	-0.730035	0.259272
10677		9.562854	-0.665286	-2.042313	-0.018137	-0.001848	-0.016711	0.562673	0.288417	-0.730068	0.259258
10678		9.562940	-0.663285	-2.042563	-0.016417	-0.000980	-0.017751	0.562650	0.288410	-0.730089	0.259257
10679		9.563014	-0.661266	-2.042869	-0.015476	-0.003215	-0.017668	0.562611	0.288412	-0.730121	0.259248
10680		9.563107	-0.659173	-2.043109	-0.011649	0.000075	-0.020310	0.562590	0.288424	-0.730131	0.259257
10681		9.551105	-0.636567	-1.988412	-0.015679	-0.000941	-0.016263	0.562558	0.288417	-0.730159	0.259254
10682		9.572564	-0.670504	-2.013596	-0.019238	0.005712	-0.017990	0.562564	0.288391	-0.730166	0.259250
10683		9.583376	-0.686548	-2.026134	-0.014940	-0.000900	-0.014776	0.562529	0.288380	-0.730195	0.259255
10684		9.592257	-0.665666	-1.998834	-0.011502	0.000840	-0.016857	0.562505	0.288377	-0.730208	0.259273
10685		9.581722	-0.645746	-1.986229	-0.014694	-0.000119	-0.018784	0.562479	0.288380	-0.730229	0.259269
10686		9.583739	-0.680693	-2.026394	-0.014693	-0.000120	-0.018783	0.562456	0.288384	-0.730243	0.259274
10687		9.553784	-0.661782	-2.028504	-0.014304	0.001430	-0.019342	0.562435	0.288388	-0.730258	0.259272
10688		9.534522	-0.660814	-2.043144	-0.016964	0.002789	-0.018381	0.562427	0.288379	-0.730268	0.259275
10689		9.563902	-0.606646	-2.045158	-0.014896	0.002151	-0.017375	0.562406	0.288373	-0.730284	0.259277
10690		9.571717	-0.617639	-1.973597	-0.013992	-0.003142	-0.014690	0.562367	0.288368	-0.730312	0.259292
10691		9.602394	-0.666861	-1.969532	-0.014651	0.002934	-0.021382	0.562355	0.288377	-0.730320	0.259285
10692		9.593811	-0.683723	-1.996911	-0.014688	-0.000128	-0.018776	0.562334	0.288375	-0.730336	0.259287
10693		9.574509	-0.682787	-2.011763	-0.014688	-0.000130	-0.018775	0.562308	0.288378	-0.730357	0.259282
10694		9.555220	-0.681909	-2.026536	-0.013564	0.001465	-0.017850	0.562291	0.288372	-0.730369	0.259291
10695		9.544171	-0.627658	-2.015953	-0.013214	-0.000044	-0.015805	0.562258	0.288369	-0.730392	0.259301
10696		9.574392	-0.642541	-2.014018	-0.012619	-0.000768	-0.017769	0.562231	0.288371	-0.730408	0.259312
10697		9.595909	-0.676371	-2.039474	-0.012232	0.000783	-0.018327	0.562203	0.288379	-0.730424	0.259319
10698		9.594543	-0.671948	-1.997394	-0.010551	-0.001405	-0.016764	0.562169	0.288385	-0.730440	0.259340
10699		9.554329	-0.669829	-1.984776	-0.009183	0.000977	-0.019846	0.562140	0.288407	-0.730449	0.259354
10700		9.564156	-0.616764	-2.001574	-0.012230	0.000780	-0.018324	0.562120	0.288405	-0.730461	0.259364
10701		9.574986	-0.632690	-2.014318	-0.013947	-0.000096	-0.017283	0.562090	0.288406	-0.730483	0.259367
10702		9.586336	-0.683103	-2.025065	-0.013946	-0.000098	-0.017282	0.562065	0.288404	-0.730499	0.259378
10703		9.576259	-0.697821	-2.010420	-0.013210	-0.000054	-0.015798	0.562032	0.288401	-0.730522	0.259388
10704		9.547719	-0.681614	-2.054733	-0.011633	0.000054	-0.020284	0.562013	0.288407	-0.730534	0.259391
10705		9.567293	-0.678191	-2.040042	-0.013699	0.000685	-0.021285	0.561991	0.288421	-0.730547	0.259385
10706		9.567480	-0.675959	-2.039905	-0.016570	0.004312	-0.018915	0.561989	0.288407	-0.730553	0.259385
10707		9.577807	-0.657405	-2.054581	-0.020038	-0.000503	-0.014235	0.561962	0.288380	-0.730589	0.259374
10708		9.597921	-0.688622	-2.037891	-0.020142	0.001790	-0.020280	0.561959	0.288365	-0.730604	0.259355
10709		9.536860	-0.684983	-1.997658	-0.017689	0.002710	-0.019835	0.561948	0.288360	-0.730620	0.259341
10710		9.588143	-0.700572	-2.022901	-0.011593	0.003110	-0.022875	0.561941	0.288376	-0.730617	0.259346
10711		9.558162	-0.681561	-2.024834	-0.008579	0.000248	-0.021797	0.561912	0.288408	-0.730624	0.259356
10712		9.577711	-0.678294	-2.010190	-0.007493	-0.001216	-0.018273	0.561876	0.288426	-0.730634	0.259384
10713		9.557248	-0.608536	-2.028859	-0.016567	0.004300	-0.018904	0.561868	0.288419	-0.730644	0.259379
10714		9.517727	-0.640703	-2.013875	-0.012922	0.003780	-0.022388	0.561863	0.288432	-0.730641	0.259386
10715		9.576758	-0.669415	-1.967587	-0.012604	-0.000791	-0.017751	0.561829	0.288439	-0.730662	0.259390
10716		9.600550	-0.739784	-2.033306	-0.011974	0.001549	-0.022310	0.561816	0.288455	-0.730665	0.259395
10717		9.601603	-0.705337	-2.077473	-0.004195	-0.000228	-0.023793	0.561781	0.288507	-0.730664	0.259414
10718		9.520466	-0.668717	-2.054016	-0.006720	0.001886	-0.019382	0.561758	0.288526	-0.730663	0.259445
10719		9.568962	-0.613142	-2.041116	-0.014284	0.001385	-0.019304	0.561736	0.288531	-0.730679	0.259443
10720		9.569740	-0.645579	-2.039146	-0.015265	0.000550	-0.016782	0.561717	0.288519	-0.730696	0.259449
10721		9.581351	-0.695697	-2.049807	-0.012919	0.003770	-0.022378	0.561706	0.288535	-0.730699	0.259447
10722		9.588715	-0.671942	-1.979797	-0.010468	0.004694	-0.021934	0.561701	0.288552	-0.730690	0.259465
10723		9.599710	-0.687476	-1.992340	-0.009902	0.000911	-0.021302	0.561675	0.288577	-0.730698	0.259472
10724		9.581983	-0.688788	-2.049190	-0.009518	0.002463	-0.021857	0.561661	0.288597	-0.730695	0.259487
10725		9.551278	-0.635416	-2.052998	-0.013299	0.002209	-0.021817	0.561645	0.288612	-0.730703	0.259483
10726		9.542190	-0.617658	-2.082177	-0.019960	0.005574	-0.019404	0.561651	0.288596	-0.730707	0.259477
10727		9.545316	-0.686684	-2.120166	-0.020342	0.004018	-0.018847	0.561647	0.288578	-0.730723	0.259459
10728		9.613814	-0.730407	-2.044206	-0.019114	0.005639	-0.025365	0.561661	0.288584	-0.730717	0.259439
10729		9.593193	-0.726439	-2.016344	-0.016065	0.005846	-0.026884	0.561670	0.288605	-0.730711	0.259416
10730		9.573364	-0.690253	-2.032628	-0.018513	0.004915	-0.027325	0.561683	0.288622	-0.730702	0.259393
10731		9.561236	-0.667407	-1.977543	-0.018189	0.000342	-0.022696	0.561668	0.288629	-0.730720	0.259365
10732		9.540536	-0.597236	-1.996032	-0.026185	0.004371	-0.019798	0.561682	0.288590	-0.730738	0.259329
10733		9.600492	-0.593302	-1.993714	-0.030698	0.004064	-0.021237	0.561697	0.288550	-0.730765	0.259266
10734		9.581262	-0.658701	-1.962295	-0.029229	0.004154	-0.018272	0.561710	0.288501	-0.730788	0.259224
10735		9.563602	-0.659694	-2.019042	-0.022534	0.003859	-0.023274	0.561716	0.288493	-0.730801	0.259185
10736		9.553709	-0.673836	-2.004327	-0.013069	-0.000075	-0.023210	0.561699	0.288514	-0.730807	0.259182
10737		9.563961	-0.654606	-2.018996	-0.012687	0.001478	-0.023762	0.561682	0.288539	-0.730813	0.259173
10738		9.563383	-0.617648	-2.020685	-0.018018	0.004158	-0.021827	0.561685	0.288533	-0.730817	0.259162
10739		9.614786	-0.632746	-2.045954	-0.021445	0.002386	-0.019752	0.561679	0.288518	-0.730838	0.259134
10740		9.565366	-0.681862	-2.016606	-0.022397	0.004609	-0.019820	0.561688	0.288490	-0.730849	0.259112
10741		9.587338	-0.714895	-2.041947	-0.016682	0.003484	-0.022305	0.561682	0.288496	-0.730857	0.259096
10742		9.576645	-0.694814	-2.029106	-0.015375	-0.000251	-0.020201	0.561663	0.288500	-0.730871	0.259094
10743		9.575977	-0.657988	-2.031020	-0.014394	0.000586	-0.022717	0.561644	0.288517	-0.730884	0.259080
10744		9.514762	-0.588203	-2.036671	-0.015947	0.003525	-0.020820	0.561641	0.288514	-0.730888	0.259078
10745		9.584020	-0.599834	-2.005056	-0.018772	0.001034	-0.020710	0.561627	0.288511	-0.730908	0.259055
10746		9.557103	-0.652112	-2.045609	-0.023885	0.001435	-0.020184	0.561627	0.288486	-0.730930	0.259023
10747		9.596080	-0.647262	-2.015978	-0.024105	0.003704	-0.018770	0.561628	0.288457	-0.730952	0.258990
10748		9.569215	-0.699592	-2.056459	-0.018769	0.001029	-0.020705	0.561621	0.288446	-0.730969	0.258971
10749		9.579446	-0.680426	-2.070998	-0.019723	0.003251	-0.020771	0.561616	0.288437	-0.730984	0.258948
10750		9.529111	-0.628378	-2.089189	-0.022010	0.006140	-0.020352	0.561629	0.288416	-0.730987	0.258933
10751		9.528675	-0.658265	-2.044846	-0.023120	0.004535	-0.021278	0.561635	0.288398	-0.731003	0.258898
10752		9.578590	-0.671079	-2.027912	-0.027146	0.003469	-0.017241	0.561642	0.288352	-0.731026	0.258867
10753		9.637845	-0.699530	-1.981713	-0.021431	0.002355	-0.019728	0.561635	0.288337	-0.731047	0.258839
10754		9.589915	-0.684078	-2.040401	-0.025785	0.005862	-0.020302	0.561655	0.288298	-0.731060	0.258804
10755		9.548964	-0.647379	-2.028965	-0.021378	0.008481	-0.024885	0.561677	0.288292	-0.731056	0.258771
10756		9.517344	-0.626297	-1.988235	-0.026160	0.004299	-0.019748	0.561691	0.288253	-0.731075	0.258734
10757		9.588237	-0.639851	-1.998675	-0.027493	0.004962	-0.019261	0.561702	0.288215	-0.731097	0.258690
10758		9.618779	-0.653958	-1.996464	-0.029806	0.004781	-0.016259	0.561717	0.288154	-0.731123	0.258653
10759		9.588005	-0.667599	-1.954283	-0.029331	0.003306	-0.021664	0.561727	0.288121	-0.731149	0.258592
10760		9.541584	-0.654117	-2.055473	-0.030335	-0.000608	-0.016570	0.561723	0.288068	-0.731190	0.258544
10761		9.531740	-0.668590	-2.040907	-0.028220	0.004905	-0.020729	0.561737	0.288033	-0.731211	0.258493
10762		9.582291	-0.648703	-2.068016	-0.026305	0.000459	-0.020600	0.561738	0.288003	-0.731238	0.258448
10763		9.554690	-0.666217	-2.110315	-0.032951	0.006844	-0.020744	0.561765	0.287952	-0.731261	0.258383
10764		9.572741	-0.660396	-2.053006	-0.029927	0.004002	-0.019686	0.561782	0.287903	-0.731284	0.258333
10765		9.572329	-0.690477	-2.008992	-0.027860	0.003383	-0.018691	0.561787	0.287863	-0.731313	0.258286
10766		9.562530	-0.704926	-1.994366	-0.027255	0.002670	-0.020653	0.561797	0.287827	-0.731335	0.258241
10767		9.572704	-0.685538	-2.008899	-0.027631	0.001109	-0.020103	0.561795	0.287797	-0.731367	0.258188
10768		9.559325	-0.628867	-1.955436	-0.032491	0.002290	-0.023562	0.561815	0.287758	-0.731393	0.258116
10769		9.579476	-0.592543	-1.984387	-0.035281	0.003567	-0.015153	0.561826	0.287684	-0.731435	0.258053
10770		9.558664	-0.589338	-1.956957	-0.043084	0.001490	-0.021950	0.561856	0.287612	-0.731478	0.257948
10771		9.570750	-0.638875	-1.968654	-0.039223	-0.003616	-0.013404	0.561843	0.287531	-0.731549	0.257864
10772		9.583410	-0.656006	-2.024179	-0.039554	0.000960	-0.017994	0.561859	0.287459	-0.731593	0.257785
10773		9.584563	-0.687974	-2.022829	-0.033107	-0.000084	-0.019009	0.561859	0.287411	-0.731638	0.257713
10774		9.545927	-0.688035	-2.052652	-0.032375	-0.000041	-0.017529	0.561862	0.287353	-0.731678	0.257655
10775		9.557627	-0.670406	-2.109529	-0.027014	0.000384	-0.022046	0.561859	0.287332	-0.731709	0.257597
10776		9.585467	-0.647831	-2.067403	-0.029849	-0.005193	-0.019374	0.561842	0.287297	-0.731757	0.257536
10777		9.556202	-0.663634	-2.068135	-0.035040	0.001268	-0.016543	0.561846	0.287232	-0.731804	0.257467
10778		9.566313	-0.644252	-2.082658	-0.034059	0.002117	-0.019051	0.561863	0.287170	-0.731840	0.257400
10779		9.576915	-0.692132	-2.052117	-0.032012	-0.001571	-0.015493	0.561851	0.287114	-0.731892	0.257339
10780		9.556091	-0.689332	-2.024768	-0.026132	0.004244	-0.019678	0.561862	0.287078	-0.731909	0.257306
10781		9.577286	-0.687343	-2.051995	-0.025526	0.003536	-0.021642	0.561868	0.287056	-0.731929	0.257260
10782		9.577508	-0.684834	-2.051800	-0.026129	0.004239	-0.019673	0.561881	0.287020	-0.731946	0.257226
10783		9.576661	-0.647861	-2.052945	-0.021375	0.005380	-0.022226	0.561888	0.287009	-0.731955	0.257196
10784		9.539240	-0.682312	-2.080809	-0.026127	0.004233	-0.019669	0.561899	0.286976	-0.731971	0.257164
10785		9.538386	-0.645437	-2.081881	-0.023313	0.006738	-0.019766	0.561910	0.286949	-0.731982	0.257136
10786		9.600554	-0.710038	-2.076561	-0.021390	0.002301	-0.019657	0.561908	0.286932	-0.731997	0.257119
10787		9.590883	-0.724673	-2.061746	-0.016119	0.008829	-0.021871	0.561920	0.286930	-0.731990	0.257114
10788		9.612162	-0.722615	-2.088667	-0.013590	0.003689	-0.023730	0.561918	0.286943	-0.731987	0.257112
10789		9.570953	-0.686330	-2.077084	-0.011506	0.006150	-0.025302	0.561919	0.286970	-0.731977	0.257110
10790		9.559038	-0.631810	-2.064990	-0.009441	0.005538	-0.024314	0.561918	0.286997	-0.731961	0.257126
10791		9.539922	-0.630531	-2.079407	-0.014922	0.004340	-0.023236	0.561914	0.287010	-0.731963	0.257115
10792		9.559599	-0.626641	-2.063970	-0.018537	0.010940	-0.024868	0.561945	0.287008	-0.731943	0.257107
10793		9.581659	-0.691612	-2.045533	-0.018909	0.009377	-0.024324	0.561967	0.287006	-0.731934	0.257086
10794		9.552760	-0.707113	-2.045145	-0.012819	0.009871	-0.027363	0.561993	0.287023	-0.731909	0.257083
10795		9.533784	-0.705473	-2.059165	-0.010146	0.008557	-0.028341	0.562004	0.287061	-0.731885	0.257082
10796		9.561818	-0.682526	-2.015616	-0.005020	0.011269	-0.031431	0.562029	0.287116	-0.731839	0.257100
10797		9.551150	-0.662081	-2.001554	-0.004290	0.011314	-0.029953	0.562044	0.287173	-0.731797	0.257119
10798		9.583660	-0.677027	-2.041033	-0.005642	0.008894	-0.026904	0.562055	0.287212	-0.731765	0.257144
10799		9.582823	-0.639729	-2.041514	-0.011105	0.010760	-0.028385	0.562076	0.287246	-0.731737	0.257142
10800		9.532928	-0.654837	-2.013791	-0.010512	0.006983	-0.027791	0.562085	0.287285	-0.731711	0.257151
10801		9.564187	-0.635089	-2.054842	-0.009158	0.009399	-0.030835	0.562102	0.287335	-0.731680	0.257147
10802		9.573989	-0.647901	-2.024991	-0.010881	0.005418	-0.027247	0.562108	0.287364	-0.731663	0.257147
10803		9.573902	-0.677970	-1.980787	-0.001256	0.008484	-0.028902	0.562108	0.287431	-0.731628	0.257176
10804		9.584148	-0.658047	-1.994332	0.001790	0.008734	-0.030419	0.562111	0.287507	-0.731579	0.257220
10805		9.555270	-0.673720	-1.994070	0.005548	0.005963	-0.027905	0.562091	0.287593	-0.731543	0.257273
10806		9.576600	-0.671418	-2.020874	0.001777	0.005658	-0.027860	0.562080	0.287662	-0.731508	0.257318
10807		9.556219	-0.635835	-2.036633	0.001153	0.003288	-0.023339	0.562050	0.287723	-0.731491	0.257363
10808		9.553449	-0.597522	-1.995399	0.002862	0.004194	-0.024367	0.562028	0.287783	-0.731465	0.257419
10809		9.576044	-0.629778	-2.020990	-0.000655	0.004696	-0.028302	0.562012	0.287854	-0.731439	0.257446
10810		9.596912	-0.660515	-2.004585	0.006862	-0.000838	-0.023276	0.561967	0.287927	-0.731424	0.257509
10811		9.587626	-0.642475	-2.033561	0.008954	0.004698	-0.027398	0.561936	0.288022	-0.731387	0.257573
10812		9.565149	-0.638347	-1.963491	0.008700	0.003890	-0.023418	0.561903	0.288099	-0.731354	0.257654
10813		9.554522	-0.586012	-1.993674	0.004929	0.003583	-0.023374	0.561868	0.288170	-0.731332	0.257713
10814		9.588330	-0.636158	-2.032225	0.002369	0.005640	-0.018957	0.561844	0.288212	-0.731308	0.257787
10815		9.606158	-0.631279	-1.974846	0.004192	0.000461	-0.022292	0.561797	0.288281	-0.731297	0.257842
10816		9.560919	-0.685183	-2.030755	0.004319	0.004283	-0.021408	0.561768	0.288338	-0.731272	0.257913
10817		9.559741	-0.648782	-2.031819	0.011737	0.001072	-0.022374	0.561713	0.288428	-0.731249	0.257996
10818		9.540564	-0.648235	-2.046539	0.014415	-0.000234	-0.023349	0.561658	0.288524	-0.731221	0.258090
10819		9.579395	-0.643608	-2.016672	0.014172	0.002028	-0.021925	0.561602	0.288619	-0.731193	0.258184
10820		9.590800	-0.659037	-2.029412	0.009675	0.001666	-0.023356	0.561560	0.288699	-0.731166	0.258264
10821		9.592391	-0.691619	-2.027786	0.011128	0.001769	-0.020406	0.561505	0.288779	-0.731145	0.258351
10822		9.573226	-0.691178	-2.042470	0.014418	-0.000240	-0.023343	0.561449	0.288877	-0.731116	0.258446
10823		9.583199	-0.672231	-2.056697	0.011129	0.001766	-0.020404	0.561395	0.288958	-0.731095	0.258533
10824		9.570710	-0.618702	-2.044819	0.008452	0.003069	-0.019427	0.561350	0.289030	-0.731067	0.258630
10825		9.530512	-0.617858	-2.032093	0.002747	0.000335	-0.025230	0.561309	0.289106	-0.731054	0.258671
10826		9.553166	-0.650612	-2.057883	0.010517	0.002469	-0.018439	0.561261	0.289171	-0.731030	0.258770
10827		9.603292	-0.663288	-2.040730	0.009076	0.005427	-0.023941	0.561227	0.289254	-0.730996	0.258845
10828		9.583955	-0.695326	-2.011523	0.012001	0.001857	-0.026336	0.561186	0.289352	-0.730960	0.258926
10829		9.543800	-0.694245	-1.998764	0.013342	0.001204	-0.026821	0.561135	0.289463	-0.730928	0.259002
10830		9.562053	-0.623352	-2.028897	0.006883	-0.000872	-0.023250	0.561088	0.289537	-0.730912	0.259067
10831		9.581553	-0.619767	-2.013884	-0.000174	0.003888	-0.022828	0.561061	0.289591	-0.730897	0.259110
10832		9.593011	-0.635049	-2.026606	-0.001521	0.001474	-0.019784	0.561030	0.289626	-0.730890	0.259158
10833		9.585091	-0.651892	-2.054425	-0.004320	-0.001050	-0.019689	0.560986	0.289664	-0.730898	0.259187
10834		9.565708	-0.684176	-2.025555	-0.001154	0.003032	-0.020323	0.560959	0.289704	-0.730884	0.259240
10835		9.577175	-0.699539	-2.038324	0.007979	0.000741	-0.022311	0.560908	0.289784	-0.730867	0.259309
10836		9.588841	-0.682073	-2.094765	0.009686	0.001648	-0.023337	0.560867	0.289861	-0.730841	0.259387
10837		9.564696	-0.643783	-2.026508	0.012726	-0.001159	-0.022295	0.560802	0.289957	-0.730823	0.259470
10838		9.556825	-0.660650	-2.054202	0.008347	0.002295	-0.022848	0.560764	0.290029	-0.730796	0.259546
10839		9.566616	-0.674234	-2.024601	0.003601	0.004189	-0.022860	0.560732	0.290094	-0.730775	0.259602
10840		9.566817	-0.672216	-2.024324	-0.001517	0.001461	-0.019778	0.560700	0.290129	-0.730768	0.259651
10841		9.578357	-0.687440	-2.036888	0.000561	0.006991	-0.023899	0.560684	0.290185	-0.730741	0.259698
10842		9.546191	-0.667847	-1.996336	0.008594	-0.003036	-0.021708	0.560625	0.290260	-0.730732	0.259769
10843		9.567405	-0.666056	-2.023579	0.007375	0.004501	-0.022896	0.560589	0.290335	-0.730704	0.259840
10844		9.569391	-0.665547	-2.065327	0.005926	0.004386	-0.025842	0.560566	0.290408	-0.730671	0.259902
10845		9.569623	-0.663338	-2.064961	0.003239	0.002622	-0.022314	0.560528	0.290472	-0.730655	0.259956
10846		9.558512	-0.643847	-2.051686	0.004221	0.003473	-0.024813	0.560502	0.290541	-0.730626	0.260017
10847		9.558588	-0.674382	-2.007787	0.002151	0.001003	-0.023244	0.560461	0.290608	-0.730615	0.260062
10848		9.562182	-0.708348	-2.048188	-0.002484	0.006718	-0.022379	0.560453	0.290646	-0.730589	0.260111
10849		9.597676	-0.666876	-1.977374	0.007883	-0.000037	-0.025727	0.560404	0.290739	-0.730569	0.260168
10850		9.567189	-0.649128	-1.979097	0.000302	0.003120	-0.017364	0.560371	0.290769	-0.730559	0.260234
10851		9.588460	-0.647208	-2.006108	-0.002955	0.004388	-0.025268	0.560353	0.290823	-0.730541	0.260260
10852		9.571117	-0.648110	-2.062872	-0.005641	0.002624	-0.021742	0.560334	0.290853	-0.730534	0.260291
10853		9.563263	-0.697511	-2.046860	-0.002957	0.001325	-0.022712	0.560301	0.290902	-0.730529	0.260320
10854		9.571408	-0.676484	-2.018859	-0.001869	0.002942	-0.021779	0.560277	0.290945	-0.730514	0.260366
10855		9.571612	-0.674413	-2.018587	-0.006258	0.003327	-0.019780	0.560252	0.290972	-0.730512	0.260395
10856		9.562246	-0.656521	-2.047407	-0.009044	0.006917	-0.024791	0.560257	0.290996	-0.730493	0.260410
10857		9.552802	-0.671360	-2.032623	-0.008685	0.002354	-0.020225	0.560233	0.291018	-0.730497	0.260427
10858		9.610992	-0.631465	-2.031496	-0.014265	0.003413	-0.025142	0.560233	0.291036	-0.730492	0.260419
10859		9.545359	-0.652562	-2.103700	-0.018911	0.003001	-0.019172	0.560224	0.291025	-0.730509	0.260403
10860		9.558695	-0.701858	-2.114939	-0.019632	0.006001	-0.023194	0.560240	0.291015	-0.730508	0.260384
10861		9.536174	-0.664662	-2.088671	-0.014261	0.003409	-0.025137	0.560234	0.291038	-0.730509	0.260368
10862		9.567092	-0.710603	-2.042804	-0.013793	0.005732	-0.022244	0.560236	0.291049	-0.730500	0.260378
10863		9.565571	-0.706560	-2.000264	-0.011470	0.002877	-0.022676	0.560221	0.291071	-0.730502	0.260379
10864		9.564073	-0.669566	-2.001380	-0.008783	0.004643	-0.026197	0.560220	0.291104	-0.730486	0.260388
10865		9.551145	-0.648078	-1.945824	-0.006716	0.004054	-0.025210	0.560206	0.291148	-0.730475	0.260400
10866		9.601408	-0.626901	-1.972327	-0.010382	0.004491	-0.021739	0.560200	0.291161	-0.730468	0.260416
10867		9.574425	-0.645080	-2.014828	-0.011105	0.001370	-0.020660	0.560177	0.291180	-0.730477	0.260422
10868		9.587793	-0.694488	-2.026360	-0.011827	0.001309	-0.022131	0.560163	0.291192	-0.730482	0.260424
10869		9.547599	-0.660794	-2.057450	-0.012550	0.001247	-0.023602	0.560145	0.291218	-0.730489	0.260416
10870		9.536333	-0.641288	-2.044416	-0.010380	0.001426	-0.019185	0.560124	0.291227	-0.730494	0.260435
10871		9.547963	-0.656234	-2.057217	-0.014873	0.004095	-0.023165	0.560119	0.291240	-0.730497	0.260424
10872		9.577128	-0.667802	-2.012918	-0.018280	0.002263	-0.021114	0.560115	0.291233	-0.730507	0.260412
10873		9.600186	-0.699915	-2.038872	-0.008414	0.000072	-0.021627	0.560084	0.291265	-0.730514	0.260422
10874		9.569605	-0.682086	-2.040754	-0.011100	0.001361	-0.020652	0.560067	0.291277	-0.730519	0.260433
10875		9.560123	-0.664229	-2.069851	-0.010739	0.002920	-0.021189	0.560049	0.291296	-0.730522	0.260441
10876		9.571772	-0.679050	-2.082724	-0.012543	0.001237	-0.023593	0.560036	0.291316	-0.730524	0.260440
10877		9.541205	-0.661037	-2.084538	-0.013164	0.001940	-0.021634	0.560019	0.291331	-0.730532	0.260436
10878		9.572236	-0.707164	-2.038865	-0.015490	0.004787	-0.021196	0.560019	0.291333	-0.730530	0.260440
10879		9.611053	-0.701469	-2.008847	-0.012181	0.002793	-0.024126	0.560007	0.291359	-0.730531	0.260434
10880		9.572709	-0.702174	-2.038366	-0.014867	0.004078	-0.023151	0.560007	0.291368	-0.730529	0.260432
10881		9.548110	-0.630938	-2.013427	-0.007687	0.003186	-0.022692	0.559988	0.291401	-0.730525	0.260447
10882		9.596486	-0.607987	-1.997806	-0.020338	0.002821	-0.022085	0.559990	0.291392	-0.730535	0.260425
10883		9.590783	-0.658654	-2.024176	-0.023746	0.004044	-0.022580	0.559997	0.291377	-0.730550	0.260383
10884		9.571727	-0.657639	-2.038825	-0.023745	0.004041	-0.022578	0.560010	0.291355	-0.730562	0.260347
10885		9.533392	-0.658295	-2.068331	-0.019975	0.004376	-0.022616	0.560013	0.291351	-0.730571	0.260319
10886		9.533739	-0.688707	-2.024519	-0.014861	0.004069	-0.023141	0.560014	0.291358	-0.730569	0.260315
10887		9.595396	-0.684293	-2.064228	-0.012890	-0.000338	-0.023042	0.559990	0.291382	-0.730581	0.260305
10888		9.564933	-0.699269	-2.022440	-0.017549	0.005349	-0.022163	0.559996	0.291380	-0.730579	0.260299
10889		9.563223	-0.662303	-2.023520	-0.017642	0.001522	-0.023048	0.559985	0.291389	-0.730593	0.260275
10890		9.561614	-0.658340	-1.981162	-0.017905	0.003784	-0.021624	0.559988	0.291382	-0.730598	0.260264
10891		9.561662	-0.623070	-2.024507	-0.020588	0.002003	-0.018107	0.559976	0.291364	-0.730622	0.260243
10892		9.575315	-0.672387	-2.036167	-0.019606	0.002860	-0.020598	0.559976	0.291350	-0.730633	0.260227
10893		9.556252	-0.671725	-2.050807	-0.019871	0.005122	-0.019174	0.559976	0.291333	-0.730646	0.260210
10894		9.568013	-0.686506	-2.063548	-0.017902	0.003778	-0.021618	0.559977	0.291327	-0.730650	0.260200
10895		9.537428	-0.668466	-2.065192	-0.012886	0.002715	-0.025572	0.559968	0.291356	-0.730650	0.260188
10896		9.556884	-0.664534	-2.050203	-0.017797	0.001475	-0.015648	0.559953	0.291330	-0.730671	0.260189
10897		9.576355	-0.660601	-2.035136	-0.022030	0.004928	-0.023577	0.559962	0.291323	-0.730680	0.260152
10898		9.588071	-0.675217	-2.048206	-0.019327	-0.002476	-0.019475	0.559940	0.291315	-0.730707	0.260134
10899		9.567136	-0.673032	-2.020922	-0.025075	0.004640	-0.022062	0.559950	0.291294	-0.730723	0.260090
10900		9.536516	-0.654973	-2.022637	-0.021396	0.001159	-0.022991	0.559950	0.291287	-0.730738	0.260058
10901		9.577069	-0.650544	-2.035014	-0.019597	0.002842	-0.020584	0.559944	0.291279	-0.730754	0.260035
10902		9.556162	-0.648467	-2.007541	-0.019597	0.002840	-0.020582	0.559942	0.291267	-0.730765	0.260021
10903		9.606437	-0.659842	-1.990800	-0.022374	0.000291	-0.020495	0.559930	0.291255	-0.730792	0.259985
10904		9.589383	-0.693389	-2.004537	-0.019690	0.002075	-0.024006	0.559931	0.291256	-0.730800	0.259959
10905		9.589547	-0.690979	-2.004585	-0.019586	-0.000228	-0.018042	0.559910	0.291243	-0.730828	0.259939
10906		9.560629	-0.674720	-2.048896	-0.019316	-0.002492	-0.019466	0.559888	0.291236	-0.730855	0.259920
10907		9.549198	-0.655298	-2.035883	-0.023003	0.004043	-0.021064	0.559891	0.291218	-0.730872	0.259886
10908		9.551201	-0.654113	-2.078106	-0.024789	-0.000708	-0.020935	0.559887	0.291192	-0.730901	0.259842
10909		9.549522	-0.650249	-2.035984	-0.022732	0.001777	-0.022486	0.559884	0.291183	-0.730921	0.259801
10910		9.561267	-0.664841	-2.049146	-0.020301	-0.000300	-0.019503	0.559873	0.291165	-0.730945	0.259779
10911		9.602053	-0.693512	-2.018282	-0.022730	0.001773	-0.022482	0.559870	0.291157	-0.730965	0.259738
10912		9.569514	-0.674468	-1.977905	-0.016533	0.000049	-0.019542	0.559853	0.291151	-0.730982	0.259731
10913		9.559866	-0.656379	-2.007224	-0.018326	-0.001640	-0.021946	0.559831	0.291158	-0.731007	0.259702
10914		9.571577	-0.671084	-2.020596	-0.016886	-0.001517	-0.019008	0.559808	0.291154	-0.731028	0.259696
10915		9.569573	-0.634354	-2.021895	-0.022361	0.000263	-0.020475	0.559796	0.291142	-0.731055	0.259659
10916		9.550411	-0.633778	-2.037005	-0.019930	-0.001813	-0.017495	0.559775	0.291121	-0.731085	0.259643
10917		9.542834	-0.650311	-2.065351	-0.014192	-0.002791	-0.019984	0.559740	0.291134	-0.731111	0.259633
10918		9.574115	-0.696791	-2.020522	-0.012399	-0.001105	-0.017577	0.559710	0.291138	-0.731127	0.259646
10919		9.595325	-0.694283	-2.048022	-0.010072	-0.000874	-0.020554	0.559676	0.291162	-0.731141	0.259652
10920		9.576196	-0.693661	-2.063058	-0.007746	-0.000644	-0.023532	0.559651	0.291195	-0.731143	0.259664
10921		9.575986	-0.658165	-2.106552	-0.011770	-0.001806	-0.019532	0.559615	0.291212	-0.731163	0.259666
10922		9.576428	-0.689277	-2.063450	-0.019572	-0.000263	-0.018018	0.559599	0.291196	-0.731186	0.259654
10923		9.578405	-0.688163	-2.105775	-0.020656	0.001173	-0.021482	0.559589	0.291191	-0.731207	0.259622
10924		9.548038	-0.703606	-2.064234	-0.018956	0.002101	-0.022501	0.559587	0.291190	-0.731215	0.259606
10925		9.528606	-0.669553	-2.122374	-0.016890	0.001528	-0.021522	0.559573	0.291195	-0.731230	0.259588
10926		9.546243	-0.664238	-2.065081	-0.014838	0.004021	-0.023070	0.559573	0.291203	-0.731228	0.259585
10927		9.554069	-0.643106	-2.036826	-0.015189	0.002455	-0.022539	0.559562	0.291215	-0.731236	0.259572
10928		9.564093	-0.656374	-2.007581	-0.017254	0.003023	-0.023515	0.559562	0.291221	-0.731239	0.259558
10929		9.566558	-0.688267	-2.006236	-0.009373	0.005308	-0.024128	0.559555	0.291251	-0.731229	0.259566
10930		9.555075	-0.668849	-1.993057	-0.010505	-0.003208	-0.023439	0.559524	0.291282	-0.731241	0.259566
10931		9.574445	-0.664768	-1.978419	-0.010780	-0.000950	-0.022009	0.559493	0.291309	-0.731254	0.259566
10932		9.564722	-0.646754	-2.007707	-0.011759	-0.001820	-0.019521	0.559464	0.291318	-0.731270	0.259573
10933		9.581821	-0.608521	-1.994043	-0.013105	-0.001190	-0.019030	0.559431	0.291329	-0.731291	0.259572
10934		9.574325	-0.625110	-2.022323	-0.016149	-0.001492	-0.017518	0.559406	0.291318	-0.731315	0.259569
10935		9.538167	-0.660894	-2.051327	-0.019560	-0.000294	-0.018002	0.559385	0.291306	-0.731344	0.259549
10936		9.573354	-0.709337	-2.090956	-0.017952	-0.000121	-0.022445	0.559374	0.291308	-0.731358	0.259530
10937		9.577565	-0.742597	-2.132543	-0.012458	-0.004954	-0.018460	0.559326	0.291324	-0.731390	0.259527
10938		9.513904	-0.709069	-2.094149	-0.009339	-0.000829	-0.019068	0.559295	0.291339	-0.731400	0.259547
10939		9.550271	-0.669024	-2.065403	-0.010425	0.000607	-0.022528	0.559270	0.291367	-0.731407	0.259548
10940		9.588942	-0.663385	-2.035589	-0.008987	0.000734	-0.019594	0.559246	0.291382	-0.731412	0.259570
10941		9.596638	-0.642671	-2.007529	-0.012749	0.000365	-0.019549	0.559219	0.291393	-0.731428	0.259571
10942		9.560581	-0.678430	-2.036364	-0.015443	0.001624	-0.018566	0.559207	0.291381	-0.731442	0.259570
10943		9.570139	-0.658678	-2.050442	-0.013116	0.001863	-0.021541	0.559189	0.291396	-0.731451	0.259567
10944		9.555189	-0.693735	-2.106671	-0.017489	-0.000879	-0.017017	0.559168	0.291379	-0.731476	0.259562
10945		9.562864	-0.673235	-2.078593	-0.007199	0.002423	-0.017184	0.559137	0.291395	-0.731482	0.259593
10946		9.593959	-0.686595	-2.076890	-0.010313	-0.001707	-0.016576	0.559102	0.291398	-0.731501	0.259614
10947		9.546233	-0.705558	-2.092512	-0.010350	0.004423	-0.021617	0.559090	0.291417	-0.731499	0.259624
10948		9.563337	-0.667150	-2.078381	-0.009700	0.000663	-0.021053	0.559067	0.291437	-0.731502	0.259639
10949		9.590315	-0.644552	-2.035173	-0.016805	0.005306	-0.020587	0.559066	0.291433	-0.731508	0.259630
10950		9.599874	-0.624918	-2.049044	-0.020459	0.002625	-0.014598	0.559057	0.291396	-0.731530	0.259629
10951		9.542806	-0.661483	-2.050483	-0.023959	0.003058	-0.018502	0.559055	0.291368	-0.731555	0.259596
10952		9.574026	-0.674237	-2.048460	-0.025325	0.006750	-0.020528	0.559078	0.291330	-0.731564	0.259565
10953		9.528769	-0.727305	-2.063055	-0.018566	0.000542	-0.020467	0.559061	0.291327	-0.731585	0.259542
10954		9.564537	-0.653607	-2.077159	-0.020563	0.004926	-0.020534	0.559070	0.291307	-0.731592	0.259526
10955		9.593892	-0.665518	-2.032941	-0.019476	0.003488	-0.017075	0.559061	0.291286	-0.731612	0.259514
10956		9.532107	-0.633128	-2.036040	-0.023256	0.006177	-0.019546	0.559076	0.291253	-0.731621	0.259493
10957		9.555831	-0.664559	-2.062194	-0.021887	0.002481	-0.017520	0.559067	0.291228	-0.731646	0.259470
10958		9.589438	-0.711834	-2.059495	-0.019559	0.002727	-0.020494	0.559067	0.291212	-0.731658	0.259453
10959		9.577864	-0.692715	-2.046174	-0.017494	0.002163	-0.019519	0.559054	0.291207	-0.731675	0.259440
10960		9.575599	-0.656264	-2.046946	-0.020451	0.002604	-0.014585	0.559045	0.291170	-0.731697	0.259438
10961		9.564028	-0.637347	-2.033450	-0.028361	0.006414	-0.018999	0.559062	0.291126	-0.731717	0.259393
10962		9.546862	-0.637771	-2.090323	-0.032730	0.003656	-0.014480	0.559075	0.291051	-0.731754	0.259348
10963		9.601615	-0.684285	-2.114965	-0.033445	0.003589	-0.015943	0.559085	0.290986	-0.731793	0.259289
10964		9.532888	-0.704043	-2.103274	-0.031031	0.004591	-0.015492	0.559100	0.290918	-0.731822	0.259249
10965		9.548014	-0.664854	-2.046656	-0.029335	0.005529	-0.016506	0.559111	0.290864	-0.731850	0.259206
10966		9.576768	-0.643352	-2.045574	-0.031376	0.003018	-0.014964	0.559120	0.290798	-0.731884	0.259166
10967		9.545896	-0.626344	-2.047131	-0.026899	0.003462	-0.013542	0.559116	0.290743	-0.731919	0.259137
10968		9.539219	-0.676446	-2.032120	-0.029678	0.003955	-0.015976	0.559127	0.290685	-0.731947	0.259101
10969		9.558635	-0.672637	-2.017034	-0.032720	0.003634	-0.014464	0.559133	0.290616	-0.731987	0.259049
10970		9.563145	-0.705943	-2.058466	-0.025894	0.001264	-0.013507	0.559127	0.290559	-0.732023	0.259027
10971		9.601741	-0.700688	-2.028629	-0.027241	0.001886	-0.013012	0.559117	0.290504	-0.732063	0.258996
10972		9.563428	-0.702147	-2.058449	-0.028325	0.003322	-0.016462	0.559126	0.290445	-0.732093	0.258958
10973		9.541856	-0.667378	-2.074078	-0.027955	0.001817	-0.014473	0.559119	0.290393	-0.732132	0.258921
10974		9.553196	-0.648511	-2.130267	-0.031998	0.003683	-0.012988	0.559128	0.290318	-0.732168	0.258885
10975		9.565804	-0.696961	-2.100429	-0.028954	0.004002	-0.014496	0.559131	0.290260	-0.732202	0.258847
10976		9.563488	-0.660508	-2.100906	-0.027258	0.004944	-0.015510	0.559140	0.290207	-0.732224	0.258824
10977		9.535783	-0.711447	-2.058709	-0.029034	0.003247	-0.017916	0.559145	0.290162	-0.732256	0.258775
10978		9.531601	-0.674010	-2.016849	-0.025931	0.007388	-0.018506	0.559165	0.290122	-0.732264	0.258753
10979		9.582080	-0.685274	-2.000019	-0.020777	0.001010	-0.014035	0.559144	0.290089	-0.732297	0.258742
10980		9.579686	-0.648973	-2.000649	-0.027600	0.003367	-0.014982	0.559149	0.290034	-0.732325	0.258715
10981		9.560584	-0.648814	-2.015600	-0.027575	0.000293	-0.012476	0.559133	0.289978	-0.732371	0.258682
10982		9.565146	-0.682190	-2.057177	-0.026168	0.003490	-0.012050	0.559130	0.289920	-0.732399	0.258673
10983		9.538671	-0.700568	-2.100316	-0.022122	0.001626	-0.013535	0.559112	0.289881	-0.732433	0.258659
10984		9.538804	-0.698763	-2.100315	-0.017731	0.001330	-0.015539	0.559096	0.289857	-0.732454	0.258662
10985		9.572598	-0.746158	-2.097981	-0.013710	0.002540	-0.019528	0.559079	0.289862	-0.732465	0.258663
10986		9.603183	-0.725311	-2.139124	-0.009582	0.001426	-0.017590	0.559053	0.289872	-0.732469	0.258693
10987		9.577797	-0.689365	-2.069912	-0.015000	0.006977	-0.018108	0.559052	0.289863	-0.732472	0.258700
10988		9.546981	-0.672291	-2.071032	-0.022513	0.006191	-0.018014	0.559063	0.289828	-0.732482	0.258687
10989		9.561684	-0.721123	-2.083295	-0.024575	0.006745	-0.018980	0.559076	0.289794	-0.732496	0.258657
10990		9.569300	-0.700478	-2.054600	-0.019814	0.004949	-0.019003	0.559081	0.289771	-0.732504	0.258648
10991		9.560290	-0.716040	-2.040217	-0.015712	0.006909	-0.019566	0.559082	0.289764	-0.732506	0.258649
10992		9.588999	-0.694423	-2.038875	-0.016745	0.002203	-0.018010	0.559072	0.289749	-0.732520	0.258648
10993		9.545520	-0.627071	-2.069790	-0.014971	0.003897	-0.015600	0.559056	0.289735	-0.732534	0.258658
10994		9.512678	-0.609706	-2.028948	-0.022483	0.003105	-0.015506	0.559054	0.289691	-0.732557	0.258644
10995		9.536572	-0.641254	-2.055526	-0.017642	0.002058	-0.012107	0.559030	0.289659	-0.732586	0.258651
10996		9.549313	-0.690020	-2.025896	-0.015684	0.003831	-0.017060	0.559023	0.289641	-0.732596	0.258660
10997		9.580611	-0.703046	-2.023990	-0.006823	0.004004	-0.017649	0.558998	0.289657	-0.732596	0.258693
10998		9.559651	-0.702392	-1.996506	-0.004468	0.001199	-0.018123	0.558966	0.289682	-0.732595	0.258739
10999		9.544512	-0.615867	-2.026522	-0.006425	-0.000575	-0.013169	0.558918	0.289690	-0.732615	0.258779
11000		9.559089	-0.665648	-2.039535	-0.007747	-0.003032	-0.010175	0.558865	0.289678	-0.732643	0.258825
11001		9.568409	-0.646489	-2.053531	-0.015947	0.003000	-0.013117	0.558843	0.289654	-0.732665	0.258837
11002		9.563852	-0.697857	-2.081265	-0.015206	-0.000010	-0.009156	0.558810	0.289615	-0.732696	0.258864
11003		9.564677	-0.730442	-2.038507	-0.006081	0.000993	-0.013685	0.558768	0.289623	-0.732710	0.258907
11004		9.521747	-0.697587	-2.026838	-0.001663	-0.002364	-0.013194	0.558713	0.289638	-0.732725	0.258966
11005		9.562126	-0.693507	-2.039397	0.001114	-0.002853	-0.010764	0.558643	0.289661	-0.732744	0.259037
11006		9.572570	-0.641324	-2.138489	0.005213	-0.000885	-0.011327	0.558580	0.289691	-0.732747	0.259133
11007		9.540338	-0.746408	-2.124493	0.023833	-0.000380	-0.018405	0.558496	0.289804	-0.732718	0.259269
11008		9.535856	-0.797559	-2.152220	0.035873	-0.003609	-0.028788	0.558405	0.289986	-0.732661	0.259422
11009		9.556066	-0.915671	-2.163569	0.056053	0.001584	-0.028587	0.558297	0.290224	-0.732569	0.259649
11010		9.553629	-0.879741	-2.163619	0.074368	-0.002566	-0.032636	0.558160	0.290525	-0.732454	0.259929
11011		9.560315	-0.738217	-2.108331	0.074423	0.001239	-0.031702	0.558029	0.290826	-0.732334	0.260213
11012		9.545963	-0.685638	-2.094813	0.062201	0.006032	-0.030658	0.557936	0.291078	-0.732212	0.260472
11013		9.587901	-0.736017	-2.260355	0.058868	0.007942	-0.027703	0.557846	0.291311	-0.732100	0.260721
11014		9.547046	-0.858381	-2.230660	0.084228	0.008395	-0.039725	0.557743	0.291653	-0.731929	0.261037
11015		9.533687	-0.993491	-2.114309	0.113355	0.009228	-0.051775	0.557613	0.292125	-0.731704	0.261418
11016		9.491235	-0.959423	-2.100966	0.136393	0.002490	-0.059203	0.557442	0.292691	-0.731451	0.261858
11017		9.546281	-0.673917	-2.045805	0.138570	0.009535	-0.056367	0.557282	0.293251	-0.731184	0.262317
11018		9.543670	-0.405755	-1.796245	0.111444	0.000467	-0.045132	0.557119	0.293699	-0.730990	0.262703
11019		9.579053	-0.276471	-1.697956	0.054561	0.006625	-0.039824	0.557046	0.293965	-0.730868	0.262900
11020		9.606941	-0.374840	-1.679928	0.007235	-0.000715	-0.030439	0.557009	0.294066	-0.730839	0.262948
11021		9.619886	-0.422416	-1.650360	-0.024346	-0.006383	-0.019757	0.556975	0.294055	-0.730888	0.262896
11022		9.619765	-0.420428	-1.651568	-0.051491	-0.015409	-0.008557	0.556938	0.293932	-0.731011	0.262769
11023		9.596980	-0.298290	-1.600593	-0.081670	-0.017896	0.002553	0.556914	0.293694	-0.731202	0.262554
11024		9.572599	-0.264300	-1.576623	-0.105382	-0.028122	0.014254	0.556876	0.293357	-0.731466	0.262277
11025		9.566817	-0.141240	-1.470076	-0.130364	-0.043877	0.031473	0.556786	0.292915	-0.731837	0.261927
11026		9.602649	-0.138197	-1.402435	-0.157386	-0.045351	0.044559	0.556717	0.292346	-0.732262	0.261519
11027		9.628309	-0.120593	-1.364685	-0.182672	-0.062758	0.062341	0.556589	0.291671	-0.732801	0.261036
11028		9.627298	-0.124534	-1.371450	-0.197458	-0.072933	0.073539	0.556437	0.290919	-0.733399	0.260518
11029		9.619716	-0.094131	-1.295461	-0.213166	-0.087106	0.089734	0.556224	0.290093	-0.734085	0.259962
11030		9.576301	-0.103500	-1.250297	-0.216887	-0.106945	0.108822	0.555924	0.289209	-0.734852	0.259422
11031		9.620711	-0.090802	-1.203617	-0.216377	-0.127200	0.133260	0.555506	0.288273	-0.735714	0.258913
11032		9.619472	-0.014905	-1.146937	-0.219259	-0.146355	0.157253	0.554994	0.287266	-0.736660	0.258441
11033		9.634193	0.128489	-1.119635	-0.223709	-0.165817	0.185715	0.554369	0.286173	-0.737713	0.257992
11034		9.605033	0.179688	-1.066681	-0.227291	-0.182098	0.205813	0.553669	0.285011	-0.738837	0.257565
11035		9.591656	0.177561	-1.071454	-0.209358	-0.210796	0.231068	0.552791	0.283855	-0.740057	0.257225
11036		9.610399	0.157963	-1.120204	-0.187419	-0.238335	0.252293	0.551758	0.282718	-0.741343	0.256989
11037		9.644600	0.171593	-1.114779	-0.163398	-0.266547	0.274456	0.550546	0.281610	-0.742713	0.256852
11038		9.728190	0.203212	-1.138401	-0.144715	-0.282351	0.294662	0.549229	0.280495	-0.744120	0.256820
11039		9.738701	0.159020	-1.265030	-0.142895	-0.301670	0.320255	0.547789	0.279324	-0.745617	0.256830
11040		9.792717	0.201609	-1.377848	-0.152308	-0.319141	0.343736	0.546272	0.278057	-0.747195	0.256847
11041		9.819898	0.188812	-1.535983	-0.163897	-0.340180	0.372825	0.544637	0.276685	-0.748891	0.256864
11042		9.894048	0.193262	-1.638812	-0.177866	-0.355856	0.389232	0.542945	0.275233	-0.750654	0.256857
11043		9.878721	0.174699	-1.744674	-0.202175	-0.368889	0.408528	0.541197	0.273659	-0.752515	0.256782
11044		9.882586	0.156293	-1.880024	-0.221074	-0.387689	0.428310	0.539382	0.271980	-0.754464	0.256667
11045		9.942495	0.207812	-2.015724	-0.236391	-0.404023	0.449558	0.537480	0.270204	-0.756506	0.256521
11046		10.119174	0.330512	-2.193930	-0.248876	-0.415312	0.483171	0.535511	0.268279	-0.758625	0.256404
11047		10.223689	0.564961	-2.229604	-0.263216	-0.419153	0.514497	0.533483	0.266203	-0.760815	0.256304
11048		10.382045	0.711119	-2.296592	-0.285953	-0.434751	0.545451	0.531389	0.263964	-0.763100	0.256180
11049		10.551328	0.838129	-2.421487	-0.323744	-0.433002	0.569809	0.529294	0.261529	-0.765459	0.255973
11050		10.762410	0.926579	-2.520175	-0.370591	-0.434402	0.607346	0.527208	0.258821	-0.767912	0.255685
11051		10.930245	1.017668	-2.815817	-0.416461	-0.434670	0.635220	0.525115	0.255884	-0.770458	0.255289
11052		11.117533	1.002700	-3.101871	-0.471007	-0.430115	0.670921	0.523061	0.252653	-0.773084	0.254784
11053		11.232014	1.041227	-3.453844	-0.529660	-0.419038	0.704319	0.521050	0.249119	-0.775794	0.254146
11054		11.229108	1.183239	-3.752791	-0.591532	-0.413016	0.735403	0.519097	0.245286	-0.778578	0.253356
11055		11.217827	1.272517	-3.994821	-0.663548	-0.411604	0.771712	0.517155	0.241117	-0.781486	0.252376
11056		11.253496	1.350420	-4.307021	-0.756883	-0.401484	0.800234	0.515322	0.236567	-0.784487	0.251115
11057		11.205873	1.331272	-4.816995	-0.876190	-0.385519	0.815019	0.513634	0.231619	-0.787600	0.249438
11058		11.240217	1.272466	-5.374720	-0.979787	-0.380697	0.839029	0.512047	0.226289	-0.790814	0.247415
11059		11.340698	1.126328	-6.014523	-1.109495	-0.360978	0.869116	0.510597	0.220465	-0.794150	0.244973
11060		11.254021	0.782622	-6.637801	-1.267858	-0.321227	0.897146	0.509429	0.214053	-0.797555	0.242010
11061		10.934425	0.374481	-7.104269	-1.374195	-0.271386	0.906287	0.508502	0.207248	-0.800936	0.238694
11062		10.434305	0.191245	-7.137023	-1.414640	-0.213426	0.918318	0.507811	0.200201	-0.804167	0.235294
11063		9.722677	-0.512829	-7.222609	-1.439318	-0.191192	0.915296	0.507183	0.193057	-0.807319	0.231797
11064		9.355401	-1.238900	-7.208316	-1.425809	-0.183269	0.881729	0.506597	0.186061	-0.810332	0.228259
11065		8.773711	-1.752189	-7.133204	-1.410413	-0.139119	0.832864	0.506185	0.179228	-0.813124	0.224687
11066		8.142275	-2.320015	-7.163766	-1.378295	-0.106135	0.772933	0.505932	0.172668	-0.815678	0.221105
11067		7.341264	-2.859588	-6.916378	-1.305977	-0.039520	0.709157	0.505924	0.166455	-0.817886	0.217705
11068		6.461404	-3.301601	-6.650532	-1.212784	0.010701	0.650726	0.506099	0.160654	-0.819766	0.214565
11069		5.908197	-3.551968	-6.260794	-1.100253	0.055140	0.603093	0.506391	0.155271	-0.821342	0.211793
11070		5.675258	-3.703641	-6.066051	-1.009109	0.090431	0.576790	0.506779	0.150187	-0.822674	0.209345
11071		5.268931	-3.895156	-5.840532	-0.915352	0.122700	0.565965	0.507218	0.145344	-0.823798	0.207273
11072		5.259626	-3.876898	-5.576917	-0.860966	0.152654	0.549261	0.507752	0.140674	-0.824749	0.205396
11073		5.432242	-3.736345	-5.091273	-0.839620	0.217177	0.515027	0.508555	0.136117	-0.825472	0.203566
11074		5.885528	-3.442608	-4.372987	-0.858830	0.292046	0.452588	0.509742	0.131678	-0.825956	0.201546
11075		6.200951	-3.400189	-4.048836	-0.897415	0.353606	0.374781	0.511277	0.127379	-0.826249	0.199208
11076		6.347536	-3.364998	-4.084118	-0.896208	0.398102	0.280403	0.513089	0.123416	-0.826338	0.196656
11077		6.698080	-2.959833	-3.621479	-1.028234	0.493842	0.145011	0.515506	0.119545	-0.826201	0.193272
11078		6.803382	-2.601547	-3.408401	-1.269648	0.653214	0.000748	0.518858	0.115448	-0.825760	0.188622
11079		6.763441	-1.913350	-3.322003	-1.514295	0.830031	-0.153967	0.523203	0.111133	-0.824949	0.182668
11080		6.680356	-1.572688	-3.416293	-1.766440	1.002252	-0.296200	0.528495	0.106535	-0.823759	0.175398
11081		6.646664	-1.420896	-3.650145	-1.993506	1.167132	-0.417610	0.534636	0.101638	-0.822168	0.166956
11082		6.642989	-1.301198	-3.743602	-2.162410	1.313542	-0.518356	0.541478	0.096533	-0.820147	0.157614
11083		6.795162	-1.317677	-3.921033	-2.264308	1.435901	-0.610474	0.548853	0.091390	-0.817685	0.147646
11084		7.164617	-1.451928	-4.022933	-2.277347	1.532973	-0.712114	0.556613	0.086520	-0.814756	0.137365
11085		7.637096	-1.577054	-3.927546	-2.241057	1.617750	-0.812417	0.564669	0.082068	-0.811353	0.126964
11086		8.219531	-1.562642	-3.601958	-2.229292	1.721243	-0.897017	0.573085	0.077894	-0.807440	0.116392
11087		8.560931	-1.310983	-3.205263	-2.245278	1.837215	-0.964179	0.581891	0.073841	-0.802995	0.105590
11088		8.683244	-1.303569	-2.924480	-2.293456	1.944049	-1.044215	0.591055	0.069876	-0.798037	0.094384
11089		8.969415	-0.778143	-2.697474	-2.327298	2.021707	-1.113246	0.600427	0.066016	-0.792632	0.082847
11090		8.947999	-0.063816	-2.484643	-2.419123	2.071781	-1.140433	0.609878	0.061938	-0.786887	0.070865
11091		9.003200	0.048188	-2.073988	-2.576969	2.064852	-1.153545	0.619176	0.057405	-0.780985	0.058205
11092		9.124042	0.050001	-1.528255	-2.694349	2.016527	-1.128743	0.628121	0.052409	-0.775036	0.045134
11093		9.213049	-0.288756	-1.146727	-2.833366	1.960969	-1.031309	0.636654	0.046598	-0.769083	0.031807
11094		9.320709	-0.494768	-0.489633	-2.958889	1.893281	-0.895780	0.644714	0.039871	-0.763161	0.018407
11095		8.972451	-0.916745	0.189892	-3.066734	1.833437	-0.820299	0.652340	0.032505	-0.757214	0.004825
11096		9.332141	-2.369748	0.551307	-3.124691	1.713430	-0.720295	0.659294	0.024578	-0.751433	-0.008676
11097		9.609018	-2.989999	0.733362	-3.093613	1.616862	-0.627334	0.665663	0.016409	-0.745755	-0.021770
11098		9.684254	-3.357967	0.731934	-3.025673	1.518888	-0.559423	0.671462	0.008214	-0.740195	-0.034394
11099		9.844924	-2.647823	0.752946	-2.926426	1.397798	-0.500782	0.676623	0.000133	-0.734862	-0.046465
11100		9.329572	-1.346605	0.830183	-2.887723	1.304063	-0.429552	0.681275	-0.008088	-0.729670	-0.058145
11101		8.841139	-0.040331	0.522735	-2.902996	1.178875	-0.314109	0.685318	-0.016797	-0.724728	-0.069478
11102		8.662365	0.770234	0.409998	-2.950859	1.051770	-0.168366	0.688766	-0.026224	-0.720028	-0.080457
11103		8.655139	1.042928	0.469830	-3.003285	0.914451	-0.018643	0.691586	-0.036399	-0.715604	-0.091078
11104		7.839637	-0.201354	0.736426	-2.909208	0.724174	0.109528	0.693626	-0.046760	-0.711702	-0.100878
11105		7.972811	-0.904490	1.173458	-2.676249	0.512748	0.198657	0.694855	-0.056687	-0.708500	-0.109501
11106		7.765053	-3.005687	1.236689	-2.283243	0.265110	0.268718	0.695236	-0.065579	-0.706249	-0.116439
11107		8.202325	-4.084785	0.663873	-1.683710	-0.009861	0.392323	0.694818	-0.072912	-0.705211	-0.120783
11108		8.106062	-3.918528	0.402280	-0.979687	-0.249686	0.503686	0.693825	-0.078274	-0.705369	-0.122211
11109		8.801969	-2.696311	0.628943	-0.295404	-0.504873	0.561452	0.692197	-0.081554	-0.706806	-0.120985
11110		9.857631	-2.085477	1.019008	0.258797	-0.659367	0.584663	0.690245	-0.083053	-0.709093	-0.117690
11111		10.788669	-1.609813	1.580887	0.769161	-0.672484	0.565186	0.688421	-0.082693	-0.711718	-0.112678
11112		12.138809	-1.295546	2.128961	1.221965	-0.603377	0.490060	0.686966	-0.080459	-0.714349	-0.106349
11113		14.052747	0.084956	2.744995	1.539858	-0.469480	0.379907	0.686022	-0.076658	-0.716681	-0.099326
11114		15.234328	1.872181	2.975181	1.581596	-0.287773	0.283128	0.685667	-0.072299	-0.718382	-0.092530
11115		14.607978	3.608098	3.227620	1.441895	-0.204890	0.259719	0.685504	-0.068301	-0.719698	-0.086333
11116		13.065974	4.261384	3.152127	1.272438	-0.268563	0.311631	0.685045	-0.065101	-0.721104	-0.080531
11117		11.501345	3.595806	2.029149	1.186065	-0.372976	0.368661	0.684159	-0.062426	-0.722795	-0.074817
11118		11.232287	1.064944	-3.313401	0.951022	-0.371105	0.449186	0.683212	-0.060857	-0.724339	-0.069653
11119		9.192325	0.410442	-6.050869	1.129300	-0.641452	0.510291	0.681315	-0.058947	-0.726837	-0.063587
11120		7.468823	-0.283764	-5.296697	1.525395	-0.714129	0.476956	0.679224	-0.055564	-0.729664	-0.056194
11121		6.175148	-0.429714	-4.767291	1.769528	-0.743337	0.429061	0.677018	-0.051162	-0.732609	-0.048082
11122		6.940940	-0.164122	-4.086105	1.773071	-0.599347	0.473236	0.675287	-0.046889	-0.734985	-0.039818
11123		8.141141	-0.246658	-4.089134	1.444839	-0.396172	0.529452	0.674174	-0.043918	-0.736546	-0.032581
11124		9.645112	0.093014	-4.019098	1.123398	-0.250026	0.537444	0.673497	-0.042070	-0.737516	-0.026495
11125		10.762221	0.841063	-3.366253	0.742508	-0.110550	0.519846	0.673230	-0.041451	-0.737946	-0.021875
11126		11.090416	0.761587	-2.862735	0.308398	-0.037947	0.560161	0.673133	-0.042466	-0.738064	-0.018700
11127		10.864747	-0.236992	-2.762418	-0.053363	-0.046994	0.655487	0.672915	-0.045059	-0.738161	-0.016521
11128		10.693614	-1.332794	-2.757431	-0.236019	-0.089046	0.742639	0.672492	-0.048597	-0.738361	-0.014699
11129		11.028864	-1.880250	-2.678485	-0.324387	-0.102393	0.750824	0.671985	-0.052461	-0.738587	-0.013174
11130		10.223543	-2.140453	-2.218100	-0.300848	-0.061603	0.747991	0.671623	-0.056239	-0.738664	-0.011574
11131		9.655511	-2.064381	-1.830174	-0.203930	-0.099034	0.693809	0.671142	-0.059483	-0.738873	-0.009803
11132		9.628708	-1.815054	-1.583416	-0.145759	-0.094692	0.597388	0.670692	-0.062181	-0.739080	-0.008145
11133		9.257761	-1.785600	-1.257533	-0.111234	-0.061825	0.549360	0.670371	-0.064583	-0.739182	-0.006537
11134		9.442613	-1.979778	-0.864528	-0.152610	-0.057444	0.555234	0.670046	-0.067153	-0.739259	-0.005056
11135		10.199446	-1.895664	-0.697957	-0.248737	-0.043506	0.562259	0.669733	-0.070070	-0.739278	-0.003910
11136		10.656102	-1.754348	-0.758181	-0.401644	-0.038986	0.563992	0.669377	-0.073519	-0.739269	-0.003311
11137		10.683511	-1.499209	-1.024164	-0.583456	-0.058033	0.569317	0.668872	-0.077596	-0.739309	-0.003359
11138		10.376174	-1.829294	-1.493714	-0.778030	-0.068227	0.542514	0.668244	-0.082241	-0.739371	-0.004198
11139		9.958861	-1.957177	-1.856282	-0.859629	-0.056889	0.499230	0.667612	-0.086997	-0.739389	-0.005492
11140		9.227851	-2.344281	-2.083743	-0.844142	-0.086483	0.477704	0.666862	-0.091624	-0.739496	-0.006787
11141		9.423766	-2.690324	-2.080953	-0.780682	-0.110558	0.473618	0.666038	-0.096011	-0.739672	-0.007861
11142		9.431102	-1.980569	-1.627522	-0.740221	-0.073968	0.461086	0.665355	-0.100223	-0.739716	-0.008837
11143		9.786909	-1.396658	-1.388672	-0.799409	-0.052123	0.430004	0.664712	-0.104514	-0.739683	-0.010150
11144		9.783428	-1.462217	-1.100300	-0.886714	-0.035801	0.385833	0.664072	-0.108945	-0.739593	-0.011931
11145		9.742857	-1.821363	-0.964507	-0.938088	-0.024834	0.354654	0.663430	-0.113425	-0.739459	-0.014017
11146		9.578972	-2.612479	-0.976711	-0.848634	-0.036526	0.370302	0.662778	-0.117665	-0.739346	-0.015710
11147		9.578439	-2.057007	-0.648796	-0.783892	-0.063808	0.354155	0.662052	-0.121618	-0.739324	-0.017216
11148		9.585705	-2.001122	-0.458118	-0.711192	-0.094128	0.347195	0.661246	-0.125306	-0.739400	-0.018456
11149		9.707818	-1.938301	-0.128296	-0.687898	-0.085797	0.340967	0.660476	-0.128884	-0.739442	-0.019644
11150		9.531581	-1.692350	-0.104739	-0.626593	-0.102933	0.355345	0.659672	-0.132315	-0.739530	-0.020542
11151		9.641078	-1.403104	0.115708	-0.566965	-0.127847	0.376689	0.658808	-0.135613	-0.739685	-0.021144
11152		9.727495	-0.923711	0.459205	-0.603804	-0.135885	0.396802	0.657880	-0.139115	-0.739842	-0.021801
11153		9.711601	-0.608384	0.294668	-0.587467	-0.179816	0.410681	0.656793	-0.142603	-0.740128	-0.022332
11154		9.776106	-0.311694	0.628509	-0.593893	-0.212810	0.433134	0.655569	-0.146201	-0.740497	-0.022783
11155		9.730670	-0.089864	0.946574	-0.637548	-0.246556	0.459767	0.654179	-0.150031	-0.740944	-0.023290
11156		9.733436	-0.192470	1.010287	-0.669564	-0.293510	0.497423	0.652581	-0.154110	-0.741502	-0.023751
11157		9.723066	-0.230541	1.028004	-0.665496	-0.337757	0.524773	0.650808	-0.158266	-0.742173	-0.024082
11158		9.646498	-0.425501	0.854731	-0.652010	-0.385504	0.536257	0.648856	-0.162423	-0.742977	-0.024285
11159		9.704152	-0.555252	0.471815	-0.637136	-0.425254	0.554000	0.646753	-0.166587	-0.743886	-0.024352
11160		9.463274	-0.618447	0.065084	-0.615185	-0.458276	0.582075	0.644533	-0.170783	-0.744865	-0.024215
11161		9.350855	-0.614452	-0.287720	-0.592647	-0.491123	0.604199	0.642193	-0.174979	-0.745922	-0.023903
11162		9.418724	-0.929437	-0.576133	-0.598953	-0.510272	0.619429	0.639763	-0.179251	-0.747006	-0.023542
11163		9.625694	-1.337660	-0.949751	-0.576170	-0.521938	0.639310	0.637291	-0.183514	-0.748099	-0.023028
11164		9.760516	-1.674309	-1.285453	-0.557455	-0.542444	0.659377	0.634746	-0.187790	-0.749221	-0.022356
11165		9.953750	-1.676872	-1.419735	-0.524398	-0.564605	0.678433	0.632130	-0.192021	-0.750385	-0.021487
11166		9.917886	-1.443212	-1.441777	-0.547722	-0.571126	0.699498	0.629452	-0.196403	-0.751525	-0.020623
11167		9.989257	-1.050525	-1.400735	-0.557788	-0.567095	0.739521	0.626759	-0.200956	-0.752597	-0.019677
11168		9.616279	-0.792812	-0.997403	-0.594041	-0.570603	0.785296	0.624000	-0.205793	-0.753607	-0.018709
11169		9.351803	-0.707582	-0.556784	-0.597026	-0.598826	0.833850	0.621106	-0.210808	-0.754638	-0.017575
11170		9.066104	-0.662881	-0.074015	-0.556537	-0.630582	0.899091	0.618115	-0.215933	-0.755678	-0.016046
11171		9.105605	-0.285628	0.193055	-0.474067	-0.700335	0.974753	0.614919	-0.221069	-0.756842	-0.013904
11172		9.388383	0.404740	0.358822	-0.384192	-0.773863	1.062224	0.611519	-0.226238	-0.758115	-0.011070
11173		9.654818	1.070452	0.470616	-0.317343	-0.864807	1.150868	0.607810	-0.231514	-0.759546	-0.007616
11174		9.952150	1.691238	0.468486	-0.287531	-0.956474	1.239707	0.603751	-0.237010	-0.761116	-0.003672
11175		10.133795	2.228738	0.496062	-0.286905	-1.056050	1.326664	0.599259	-0.242806	-0.762846	0.000651
11176		10.198666	2.641523	0.692277	-0.309075	-1.176000	1.423835	0.594231	-0.248999	-0.764762	0.005326
11177		10.166041	2.729286	1.127263	-0.338793	-1.300322	1.528782	0.588613	-0.255640	-0.766861	0.010352
11178		10.321382	2.566933	1.611986	-0.364296	-1.419561	1.645893	0.582430	-0.262747	-0.769084	0.015776
11179		10.999297	2.479912	1.769253	-0.380315	-1.550479	1.767334	0.575616	-0.270309	-0.771447	0.021663
11180		11.931843	2.887493	1.311965	-0.395247	-1.656259	1.917218	0.568265	-0.278411	-0.773805	0.028066
11181		13.023611	3.459260	0.499462	-0.428158	-1.737370	2.098306	0.560400	-0.287240	-0.776030	0.034978
11182		14.055171	3.451455	-1.141184	-0.494882	-1.794648	2.283702	0.552064	-0.296881	-0.778012	0.042236
11183		15.786483	3.910293	-2.680393	-0.526011	-1.879959	2.470656	0.543151	-0.307244	-0.779798	0.050023
11184		17.721286	7.138546	-1.775763	-0.523796	-1.867054	2.704775	0.534083	-0.318409	-0.780997	0.058436
11185		18.799042	8.503043	-3.058290	-0.729444	-1.907713	2.841546	0.524303	-0.330568	-0.781927	0.066487
11186		19.842239	8.978991	-3.772443	-1.043705	-1.821823	2.953377	0.514140	-0.343911	-0.782298	0.073452
11187		20.237748	9.491618	-4.780471	-1.603541	-1.541233	3.095658	0.503844	-0.359309	-0.781619	0.078160
11188		19.617824	9.142317	-4.520972	-2.317446	-1.360042	3.331539	0.492668	-0.377372	-0.780008	0.080354
11189		17.095373	5.085051	-4.662542	-2.866608	-1.430783	3.388210	0.479882	-0.396836	-0.778283	0.080684
11190		15.215342	-0.331488	-5.369262	-3.321276	-1.553139	3.269190	0.465523	-0.416637	-0.776815	0.079118
11191		14.043625	-6.404249	-6.974057	-3.585656	-1.478899	3.065790	0.450691	-0.436102	-0.775201	0.075870
11192		13.070555	-10.533331	-9.841153	-3.441698	-1.137088	2.695489	0.437441	-0.453709	-0.773099	0.071500
11193		10.868045	-11.296650	-11.616366	-2.893582	-0.685557	2.344965	0.427112	-0.468795	-0.770233	0.067432
11194		7.935451	-10.751785	-12.238749	-2.198210	-0.178439	2.011899	0.420409	-0.481152	-0.766580	0.064060
11195		4.997765	-10.133013	-12.748040	-1.658306	0.228942	1.620364	0.416615	-0.490980	-0.762664	0.060937
11196		2.772279	-9.877119	-13.186602	-1.182793	0.676876	1.249306	0.415819	-0.498497	-0.758464	0.057686
11197		1.756259	-7.759662	-12.840308	-0.673466	1.093013	1.061538	0.417876	-0.504378	-0.753633	0.054953
11198		1.317680	-6.702107	-11.722924	-0.375141	1.329066	0.888966	0.421633	-0.509008	-0.748597	0.052341
11199		1.252901	-4.919885	-10.571240	-0.097086	1.274862	0.583601	0.425947	-0.511880	-0.744328	0.050239
11200		2.689795	-3.892721	-9.252443	0.046110	1.042947	0.270440	0.429875	-0.513161	-0.741297	0.048508
11201		4.458138	-4.223301	-7.998340	0.131455	1.109542	-0.105266	0.434351	-0.512907	-0.739014	0.046094
11202		5.712205	-4.668516	-7.012756	0.152444	1.360729	-0.551191	0.439945	-0.511016	-0.737252	0.042077
11203		5.338145	-5.112992	-6.087133	0.061390	1.744229	-0.993215	0.446787	-0.507824	-0.735674	0.035769
11204		2.817255	-6.443607	-5.572856	-0.147022	2.101412	-1.385327	0.454473	-0.503696	-0.734182	0.026862
11205		2.107077	-6.617922	-5.400974	-0.185570	2.441045	-1.669572	0.463260	-0.498634	-0.732453	0.016323
11206		1.031786	-7.237568	-5.636505	-0.117607	2.859266	-1.905817	0.473685	-0.492485	-0.730110	0.004413
11207		0.215345	-6.860870	-6.151160	0.062575	3.162384	-2.136187	0.485507	-0.484968	-0.727340	-0.008120
11208		-0.608157	-6.314767	-6.584578	0.353545	3.319818	-2.381059	0.498444	-0.475648	-0.724492	-0.020618
11209		-1.273904	-5.760535	-6.361876	0.651767	3.279249	-2.641827	0.511700	-0.464448	-0.722073	-0.032603
11210		-1.167213	-5.104718	-5.338638	0.752250	3.163939	-2.911034	0.524526	-0.451796	-0.720246	-0.044694
11211		-0.706883	-4.493908	-4.832120	0.789483	3.213967	-3.195486	0.537298	-0.437817	-0.718555	-0.057499
11212		-0.707696	-3.951651	-4.770715	0.585971	3.222471	-3.488408	0.549311	-0.423094	-0.716998	-0.071851
11213		0.040610	-4.085071	-4.989994	0.258546	3.195140	-3.718292	0.560138	-0.408246	-0.715439	-0.087906
11214		0.661875	-4.575967	-5.575759	-0.004878	3.269906	-3.914519	0.570287	-0.393159	-0.713480	-0.105571
11215		0.749275	-5.555542	-6.266680	-0.080766	3.369364	-4.137570	0.580148	-0.377210	-0.711125	-0.124262
11216		0.597086	-6.128615	-6.436986	-0.005204	3.337440	-4.315200	0.589529	-0.360142	-0.708717	-0.143088
11217		1.199459	-5.421116	-5.018069	-0.162269	3.469316	-4.511296	0.598511	-0.342508	-0.705586	-0.163163
11218		1.846441	-4.753956	-4.335314	-0.707451	3.721947	-4.784233	0.606749	-0.325089	-0.701056	-0.186260
11219		3.103975	-5.650971	-4.926177	-1.117606	3.784395	-4.897743	0.613867	-0.308188	-0.695449	-0.211041
11220		4.163560	-6.804073	-6.123576	-1.105809	3.839137	-4.936963	0.620551	-0.290748	-0.689050	-0.235781
11221		4.757790	-6.463423	-5.254635	-0.809337	3.750775	-5.070423	0.626581	-0.271728	-0.682774	-0.259576
11222		8.222136	-4.558628	-3.103613	-0.586783	3.617326	-4.936510	0.632006	-0.252347	-0.676382	-0.281774
11223		11.415019	-0.412631	-3.600311	-0.533500	3.482423	-4.547327	0.636994	-0.234069	-0.669457	-0.302123
11224		12.817020	3.584279	-3.310437	-0.600767	3.040637	-4.038420	0.640668	-0.218159	-0.662823	-0.320339
11225		13.898749	5.077200	-3.313025	-1.009901	2.711602	-3.448269	0.643328	-0.205908	-0.655638	-0.337445
11226		12.141191	6.984996	2.016962	-1.216799	2.318465	-2.930399	0.645018	-0.196562	-0.648617	-0.353003
11227		9.768926	6.008218	8.372405	-1.703019	1.917258	-2.315113	0.645740	-0.191410	-0.641285	-0.367608
11228		9.399186	1.704578	7.450855	-1.752959	1.490897	-1.537135	0.646235	-0.189614	-0.634443	-0.379353
11229		10.466154	0.425907	7.336367	-1.403347	0.941467	-0.684559	0.646741	-0.190355	-0.629269	-0.386667
11230		8.926171	-0.017498	7.531381	-0.789692	0.223605	0.102093	0.646944	-0.192874	-0.626943	-0.388851
11231		8.950921	0.105590	5.572897	-0.302072	-0.408502	0.798997	0.646871	-0.197159	-0.627037	-0.386665
11232		8.858839	-0.265511	2.862040	-0.039823	-0.870305	1.343087	0.646561	-0.203131	-0.628645	-0.381447
11233		8.140761	-1.072342	-0.033202	0.101569	-1.252895	1.666938	0.645697	-0.210343	-0.631434	-0.374330
11234		9.288320	0.447240	-4.250576	0.788527	-1.471652	1.746655	0.644899	-0.215915	-0.636068	-0.364559
11235		13.332732	6.542462	-7.023608	1.660144	-1.414488	1.416610	0.644520	-0.217459	-0.642338	-0.353140
11236		14.757167	17.695358	-3.925290	1.846391	-0.977597	0.756721	0.644558	-0.215504	-0.648059	-0.343690
11237		17.746499	14.821988	4.755668	1.206973	-0.599917	0.712146	0.645030	-0.214865	-0.651428	-0.336765
11238		13.889187	6.416362	4.999971	0.100012	-0.408016	1.509689	0.646211	-0.220118	-0.651490	-0.330938
11239		13.524964	-1.205703	2.285728	-0.168335	-1.090658	1.715982	0.645118	-0.227979	-0.653073	-0.324568
11240		12.984417	-9.030711	-2.080834	0.272384	-1.145778	1.510568	0.643953	-0.233778	-0.655701	-0.317378
11241		11.119707	-11.078772	-6.256827	1.116492	-1.427031	1.297174	0.642429	-0.236525	-0.660750	-0.307817
11242		8.181148	-10.970380	-4.023705	1.907565	-1.665271	1.152922	0.640711	-0.236519	-0.667848	-0.295849
11243		6.465112	-8.616646	-2.249588	2.374201	-1.683262	1.171036	0.639356	-0.235034	-0.675536	-0.282195
11244		6.767792	-4.109539	-5.066148	2.126126	-1.538259	1.475058	0.638462	-0.235132	-0.681916	-0.268459
11245		8.087714	-1.185991	-6.545355	1.767850	-1.231583	1.800963	0.638482	-0.237068	-0.686327	-0.255136
11246		10.095985	1.231476	-6.075392	0.692479	-0.863640	1.895814	0.638531	-0.242345	-0.687951	-0.245501
11247		11.897194	1.745182	-5.787369	-0.785924	-0.390620	1.758071	0.638231	-0.251378	-0.686283	-0.241838
11248		10.039495	-0.053938	-6.982563	-1.729979	-0.007951	1.573283	0.637801	-0.262387	-0.682356	-0.242390
11249		8.279221	-4.062059	-8.742061	-1.542730	-0.224490	1.387501	0.636582	-0.272363	-0.679494	-0.242629
11250		8.725380	-6.242374	-8.245769	-0.965170	-0.523345	1.253079	0.634897	-0.280333	-0.678420	-0.240968
11251		9.056561	-7.726236	-6.742457	-0.310221	-0.682992	1.133618	0.633408	-0.285942	-0.678769	-0.237286
11252		8.488949	-5.994390	-4.435552	0.201592	-0.724731	1.106448	0.632429	-0.289858	-0.679880	-0.231904
11253		9.485045	-4.071739	-2.025783	0.251315	-0.617896	0.999829	0.631757	-0.293116	-0.680815	-0.226844
11254		10.115451	-3.711057	-0.719462	-0.087775	-0.285806	0.854456	0.631551	-0.296630	-0.680480	-0.223833
11255		12.454898	-3.566420	-0.934365	-0.383833	-0.109528	0.915762	0.631576	-0.301100	-0.679136	-0.221867
11256		11.405220	-3.481960	-0.140378	-0.856741	-0.087634	0.737284	0.630760	-0.306466	-0.677423	-0.222079
11257		10.671462	-3.353919	-1.178535	-0.881127	-0.090095	0.603447	0.629750	-0.311437	-0.675854	-0.222808
11258		9.960170	-2.739740	-1.924676	-0.710872	-0.232739	0.540861	0.628426	-0.315807	-0.675013	-0.222945
11259		8.774523	-1.542554	-2.074850	-0.539274	-0.189391	0.506436	0.627481	-0.319447	-0.674261	-0.222694
11260		8.526427	-0.471218	-1.580421	-0.431160	-0.253539	0.563669	0.626528	-0.323013	-0.673748	-0.221786
11261		9.621485	0.277225	-1.169281	-0.504846	-0.216608	0.607896	0.625629	-0.326902	-0.672950	-0.221047
11262		9.612917	0.000483	-0.774843	-0.589423	-0.181959	0.605978	0.624686	-0.331029	-0.671944	-0.220631
11263		9.471107	-1.134786	-0.735760	-0.597910	-0.208035	0.563271	0.623597	-0.335043	-0.671059	-0.220348
11264		9.666218	-1.824144	-0.173779	-0.547338	-0.200438	0.543807	0.622575	-0.338835	-0.670232	-0.219957
11265		9.711912	-2.070615	-0.118689	-0.509385	-0.215167	0.548553	0.621573	-0.342516	-0.669469	-0.219410
11266		9.866840	-1.206251	0.199328	-0.423429	-0.272835	0.570291	0.620524	-0.346067	-0.668946	-0.218400
11267		10.016421	-0.474233	0.685693	-0.459610	-0.349457	0.588894	0.619175	-0.349849	-0.668576	-0.217334
11268		10.349165	0.095080	0.983886	-0.579433	-0.418565	0.635051	0.617408	-0.354238	-0.668207	-0.216385
11269		10.150799	0.181111	0.985643	-0.704229	-0.493062	0.705828	0.615235	-0.359301	-0.667793	-0.215503
11270		9.739624	-0.014821	1.201492	-0.770220	-0.550428	0.777332	0.612793	-0.364865	-0.667345	-0.214495
11271		9.353167	0.170562	1.301921	-0.799195	-0.569153	0.852347	0.610295	-0.370759	-0.666764	-0.213315
11272		9.202076	0.301156	1.153673	-0.777239	-0.595784	0.901215	0.607761	-0.376769	-0.666179	-0.211843
11273		9.383534	0.272038	0.712559	-0.686637	-0.600296	0.920721	0.605382	-0.382540	-0.665638	-0.210005
11274		9.669054	0.139646	0.645364	-0.617401	-0.588570	0.934047	0.603154	-0.388125	-0.665087	-0.207901
11275		9.820567	0.059449	0.332461	-0.554142	-0.612636	0.957961	0.600974	-0.393593	-0.664603	-0.205471
11276		10.148905	0.460616	-0.339433	-0.463800	-0.705858	0.991827	0.598657	-0.398976	-0.664412	-0.202448
11277		10.232568	1.318370	-0.512551	-0.341605	-0.818764	1.031258	0.596221	-0.404194	-0.664584	-0.198685
11278		10.247398	1.845921	-0.048730	-0.266464	-0.917171	1.074292	0.593608	-0.409402	-0.665020	-0.194338
11279		10.041517	2.007228	1.135917	-0.183801	-0.995455	1.149393	0.590943	-0.414648	-0.665588	-0.189330
11280		9.595964	1.825971	1.990179	-0.143489	-1.084927	1.243482	0.588098	-0.420138	-0.666240	-0.183709
11281		9.818462	1.462391	2.062604	-0.080381	-1.173908	1.345090	0.585134	-0.425813	-0.666961	-0.177380
11282		10.402945	1.482089	1.245915	-0.031028	-1.267183	1.438272	0.581982	-0.431689	-0.667762	-0.170400
11283		10.763263	1.715244	0.578050	0.008556	-1.378418	1.512220	0.578545	-0.437732	-0.668706	-0.162819
11284		10.457904	2.081004	0.587153	0.025687	-1.500299	1.586564	0.574720	-0.444008	-0.669796	-0.154687
11285		10.313448	2.378817	1.286904	0.017700	-1.658197	1.697850	0.570351	-0.450727	-0.671015	-0.145889
11286		10.642973	2.500277	2.388256	-0.004992	-1.836564	1.831511	0.565327	-0.457995	-0.672346	-0.136367
11287		11.441889	3.067514	3.261091	-0.083957	-1.999649	1.990835	0.559566	-0.466036	-0.673615	-0.126247
11288		12.518597	4.395152	3.527906	-0.241880	-2.178422	2.182943	0.552818	-0.475154	-0.674715	-0.115676
11289		14.054516	5.294294	3.190682	-0.454112	-2.332398	2.414675	0.545017	-0.485600	-0.675409	-0.104750
11290		15.248330	5.992369	0.007066	-0.753639	-2.368755	2.642949	0.536306	-0.497493	-0.675297	-0.094075
11291		17.500617	10.068987	0.161934	-0.664160	-2.441526	2.926592	0.527492	-0.509955	-0.674508	-0.082081
11292		18.520722	11.586978	0.638268	-0.699711	-2.255873	3.174924	0.519105	-0.523070	-0.672333	-0.069976
11293		20.041610	9.909288	0.627942	-0.790809	-2.389837	3.252276	0.509831	-0.536522	-0.670002	-0.057566
11294		21.319284	9.608070	-0.855366	-1.094132	-2.237696	3.251718	0.500050	-0.550478	-0.666899	-0.046576
11295		21.362768	9.997503	-1.844025	-1.554778	-2.093138	3.418258	0.489282	-0.565919	-0.662548	-0.036993
11296		20.766858	6.524532	-1.562805	-1.922343	-2.228805	3.558728	0.476813	-0.582435	-0.657753	-0.027918
11297		20.841383	0.798833	-2.999606	-2.685525	-2.328688	3.406979	0.461497	-0.600013	-0.653107	-0.021352
11298		17.552429	-6.264262	-4.860283	-3.252921	-2.232515	3.077068	0.444511	-0.617454	-0.648726	-0.017762
11299		16.529208	-11.785280	-9.352923	-3.377574	-1.893280	2.687201	0.427945	-0.633597	-0.644320	-0.016438
11300		14.314831	-14.606099	-13.582561	-2.826783	-1.372792	2.238403	0.414614	-0.646782	-0.639930	-0.016057
11301		9.840079	-14.070129	-14.607560	-1.621935	-0.796326	1.713565	0.406871	-0.655623	-0.635921	-0.014768
11302		6.203421	-11.657737	-14.387632	-0.631321	-0.326837	1.164929	0.403841	-0.660585	-0.632746	-0.013131
11303		4.525505	-8.601380	-13.553301	-0.035962	0.418547	0.746564	0.405086	-0.663039	-0.629380	-0.012875
11304		3.543179	-5.347937	-12.502109	0.070217	0.919864	0.512289	0.408275	-0.664508	-0.625725	-0.014494
11305		2.932966	-4.818667	-10.972948	-0.040962	0.983720	0.351753	0.411252	-0.665725	-0.622410	-0.016948
11306		3.156707	-5.519142	-9.733179	-0.322572	0.696932	0.066728	0.412402	-0.666609	-0.620609	-0.020025
11307		4.420567	-7.346449	-9.238261	-0.340014	0.575801	-0.324557	0.413067	-0.666349	-0.620322	-0.023556
11308		5.547108	-8.965343	-8.175108	-0.076850	0.841786	-0.765981	0.415414	-0.664125	-0.620947	-0.028185
11309		3.975089	-9.426427	-7.228388	0.141401	1.319267	-1.165073	0.419888	-0.660179	-0.621825	-0.034517
11310		2.017948	-9.350611	-6.838137	0.292391	1.717698	-1.541591	0.426028	-0.654617	-0.623028	-0.042575
11311		0.377415	-8.750645	-6.627300	0.465417	2.157755	-1.912657	0.433952	-0.647395	-0.624365	-0.052283
11312		-1.394475	-8.621079	-6.463433	0.609288	2.597852	-2.263563	0.443550	-0.638497	-0.625712	-0.063795
11313		-2.993980	-7.640628	-6.395809	0.790917	2.927912	-2.521308	0.454520	-0.628121	-0.626939	-0.076303
11314		-3.860516	-6.326560	-6.237631	0.784740	3.157314	-2.751549	0.465941	-0.616686	-0.628075	-0.090108
11315		-4.376159	-5.396739	-6.457759	0.765458	3.304030	-2.953611	0.477446	-0.604347	-0.629145	-0.104818
11316		-4.351013	-5.225933	-6.846960	0.805302	3.384908	-3.155324	0.488991	-0.590902	-0.630308	-0.120140
11317		-4.349979	-4.996702	-6.803797	0.861581	3.364942	-3.388551	0.500222	-0.576288	-0.631862	-0.135717
11318		-3.550254	-4.947040	-5.900561	0.863425	3.242323	-3.610094	0.510640	-0.560679	-0.633987	-0.151484
11319		-2.269158	-4.741980	-4.837700	0.812586	3.306960	-3.859647	0.520616	-0.544042	-0.636170	-0.168121
11320		-1.547970	-4.899173	-4.154357	0.560338	3.429522	-4.162054	0.529707	-0.526623	-0.638164	-0.186615
11321		-0.436439	-5.680853	-4.216927	0.143629	3.487915	-4.410450	0.537272	-0.509111	-0.639735	-0.207085
11322		0.326887	-7.339376	-5.220067	-0.117283	3.573980	-4.607799	0.543824	-0.491166	-0.640757	-0.229004
11323		1.205682	-8.411954	-6.421295	-0.060385	3.613185	-4.758096	0.550007	-0.472136	-0.641530	-0.251035
11324		1.103348	-7.637073	-5.562903	-0.119851	3.897631	-5.162531	0.555959	-0.451176	-0.641726	-0.274839
11325		1.828374	-8.202888	-4.002927	-0.625961	4.026854	-5.512288	0.560129	-0.429877	-0.640883	-0.301212
11326		5.030857	-8.307689	-5.747539	-0.919363	4.176119	-5.424395	0.563625	-0.408966	-0.638233	-0.328228
11327		4.823948	-7.438368	-8.599429	-0.737392	4.329857	-5.480485	0.567221	-0.386635	-0.634780	-0.354723
11328		6.479647	-4.983148	-7.700051	-0.221162	4.341989	-5.453425	0.571192	-0.362406	-0.631403	-0.379121
11329		8.850361	-0.245286	-7.410080	-0.350462	4.345573	-5.133341	0.574866	-0.339144	-0.626482	-0.402532
11330		14.177317	1.668367	-7.973116	-0.563718	3.933796	-4.475216	0.577562	-0.319020	-0.620663	-0.423587
11331		15.536443	2.949603	-4.978337	-0.783179	3.607271	-3.778585	0.579860	-0.302128	-0.613805	-0.442409
11332		12.452314	7.243022	4.454752	-1.157206	2.972170	-3.408012	0.580039	-0.288641	-0.607096	-0.460083
11333		10.962433	5.038049	4.743862	-1.922649	2.680035	-2.782174	0.579350	-0.279824	-0.598326	-0.477554
11334		9.072340	7.730309	10.105574	-1.628405	2.013885	-1.687056	0.579350	-0.274879	-0.590621	-0.489860
11335		8.331160	8.425925	17.314235	-1.494276	1.145133	-0.463265	0.579731	-0.275202	-0.584156	-0.496929
11336		10.013568	3.994185	12.226994	-1.636266	0.208459	0.752261	0.579999	-0.281740	-0.578513	-0.499547
11337		10.884072	0.082830	5.383703	-1.352754	-0.533260	1.585361	0.580431	-0.291655	-0.574631	-0.497832
11338		9.186284	-3.346838	0.855609	-0.632662	-0.919024	1.832835	0.581281	-0.301048	-0.573292	-0.492766
11339		7.948269	-6.180048	-4.294004	0.576061	-1.424711	1.787398	0.582241	-0.307927	-0.576437	-0.483628
11340		12.322125	-5.168213	-6.163521	1.818155	-1.742289	1.494250	0.583338	-0.310963	-0.583863	-0.471300
11341		11.158179	6.773281	-3.362393	2.623998	-1.246094	1.024511	0.585934	-0.309044	-0.592276	-0.458674
11342		10.960560	9.007914	0.711329	2.528650	-1.030339	0.770820	0.588340	-0.306100	-0.600061	-0.447310
11343		12.964961	7.516081	2.056400	1.937843	-0.563258	1.240947	0.592213	-0.305289	-0.604347	-0.436860
11344		12.656208	4.266947	-1.425841	1.379331	-0.655081	1.651464	0.595750	-0.307545	-0.607021	-0.426642
11345		14.257749	-1.200026	-2.944889	1.355470	-1.211085	1.594123	0.597333	-0.310803	-0.611317	-0.415797
11346		13.859735	-5.508559	-2.870221	1.557266	-1.297604	1.472066	0.598608	-0.313190	-0.616386	-0.404536
11347		11.794832	-7.864929	-3.837104	1.557574	-1.527558	1.450978	0.599029	-0.315910	-0.622074	-0.392924
11348		10.086742	-9.226744	-5.331631	1.631921	-1.806702	1.347453	0.598365	-0.318544	-0.628801	-0.380916
11349		8.347093	-7.314511	-5.992127	1.757748	-1.819609	1.342213	0.597735	-0.320741	-0.635684	-0.368436
11350		6.754254	-4.810601	-7.576353	1.453988	-1.651716	1.555884	0.597420	-0.324189	-0.641055	-0.356427
11351		6.650990	-2.882504	-7.857396	1.207584	-1.324627	1.821952	0.598135	-0.328624	-0.644468	-0.344821
11352		8.455213	-1.469917	-7.566363	0.345385	-0.935328	1.826112	0.598641	-0.335022	-0.645107	-0.336491
11353		10.709547	-0.147385	-6.519516	-0.754278	-0.344713	1.693417	0.599003	-0.343349	-0.642207	-0.332983
11354		9.122520	-0.448993	-7.819300	-1.435508	-0.123423	1.542928	0.598616	-0.352895	-0.637672	-0.332413
11355		9.469288	-2.694024	-8.407516	-1.256399	-0.386928	1.357639	0.597348	-0.361669	-0.634470	-0.331388
11356		10.068783	-4.406912	-7.259072	-0.874079	-0.569802	1.197519	0.595852	-0.369052	-0.632707	-0.329307
11357		9.306571	-5.204875	-4.356875	-0.469749	-0.721267	1.056367	0.594372	-0.374961	-0.632271	-0.326128
11358		9.231040	-5.510373	-1.710877	-0.272811	-0.745913	1.011298	0.593057	-0.380178	-0.632305	-0.322396
11359		10.846870	-4.558848	-1.157858	-0.452800	-0.540706	1.088080	0.592178	-0.385829	-0.631242	-0.319366
11360		11.081332	-5.154964	-0.305391	-0.741937	-0.296865	1.072750	0.591457	-0.391942	-0.628990	-0.317697
11361		10.370483	-4.731299	0.226418	-0.985479	-0.128728	0.860445	0.590474	-0.397822	-0.626187	-0.317755
11362		10.606083	-4.460262	-0.548387	-0.859038	-0.184598	0.675434	0.589236	-0.402841	-0.624095	-0.317845
11363		10.235069	-3.137231	-0.913414	-0.584045	-0.308798	0.543452	0.587959	-0.406773	-0.623042	-0.317268
11364		9.085616	-1.819394	-1.141389	-0.426811	-0.346033	0.546501	0.586853	-0.410324	-0.622352	-0.316095
11365		9.348229	-0.459669	-0.890102	-0.293890	-0.451141	0.668779	0.585882	-0.413980	-0.621928	-0.313957
11366		9.518004	0.641456	-0.320786	-0.432623	-0.350348	0.737316	0.585015	-0.418134	-0.620848	-0.312203
11367		9.556027	0.547368	-0.136877	-0.510124	-0.335824	0.679904	0.583955	-0.422279	-0.619687	-0.310909
11368		9.867938	-0.668518	0.350169	-0.599375	-0.296998	0.592329	0.582667	-0.426380	-0.618446	-0.310200
11369		9.986529	-1.696822	0.296909	-0.626188	-0.363234	0.603371	0.581140	-0.430653	-0.617310	-0.309423
11370		9.947174	-1.134913	0.638858	-0.605145	-0.436826	0.643153	0.579451	-0.435113	-0.616343	-0.308278
11371		10.150735	-0.294067	1.029189	-0.638012	-0.556211	0.688852	0.577391	-0.439943	-0.615553	-0.306862
11372		10.497789	0.406078	1.092693	-0.730588	-0.644438	0.782420	0.574952	-0.445471	-0.614673	-0.305227
11373		9.937362	1.311834	1.254103	-0.792604	-0.707751	0.867996	0.572298	-0.451489	-0.613662	-0.303400
11374		9.326682	2.213379	1.684351	-0.789885	-0.744150	0.937865	0.569592	-0.457766	-0.612593	-0.301241
11375		9.034035	2.200988	1.839565	-0.745100	-0.740933	1.014249	0.567096	-0.464095	-0.611372	-0.298734
11376		9.272252	1.651370	2.064484	-0.644379	-0.704040	1.069326	0.564977	-0.470247	-0.610054	-0.295809
11377		9.288892	0.773724	1.821621	-0.542994	-0.707490	1.068401	0.563071	-0.476066	-0.608860	-0.292577
11378		9.176275	0.489088	0.279273	-0.358419	-0.806903	1.058734	0.561236	-0.481458	-0.608231	-0.288562
11379		9.509175	1.427528	-0.928894	-0.183238	-0.951040	1.087577	0.559403	-0.486592	-0.608167	-0.283602
11380		10.007730	1.856338	-1.147515	-0.065082	-1.031796	1.142097	0.557629	-0.491650	-0.608354	-0.277911
11381		10.361308	1.883084	-0.691045	-0.036354	-1.109126	1.209715	0.555760	-0.496887	-0.608594	-0.271747
11382		10.233299	1.655650	0.369409	-0.035806	-1.189627	1.290315	0.553689	-0.502445	-0.608839	-0.265128
11383		9.841838	1.173670	1.274169	-0.013076	-1.281296	1.379283	0.551477	-0.508269	-0.609097	-0.257946
11384		9.812226	0.896379	1.438759	0.026373	-1.386442	1.467228	0.549077	-0.514336	-0.609442	-0.250106
11385		10.426580	1.178851	1.022072	0.088797	-1.492418	1.557630	0.546575	-0.520561	-0.609864	-0.241531
11386		10.710630	2.062196	0.182194	0.098400	-1.573243	1.655260	0.543876	-0.527087	-0.610214	-0.232416
11387		10.509226	2.802408	-0.253184	0.097220	-1.683801	1.745518	0.540873	-0.533929	-0.610546	-0.222732
11388		10.070008	3.232720	0.238771	0.108311	-1.807970	1.827457	0.537499	-0.541035	-0.610940	-0.212434
11389		10.072866	3.250259	1.861051	0.126746	-1.995016	1.958108	0.533649	-0.548570	-0.611407	-0.201177
11390		11.189142	3.410173	3.468705	0.069097	-2.181507	2.139191	0.529107	-0.556862	-0.611724	-0.189062
11391		13.353345	4.174157	3.962696	-0.034666	-2.352519	2.351461	0.523818	-0.566085	-0.611665	-0.176148
11392		15.686007	5.632482	3.031558	-0.286741	-2.509986	2.598610	0.517368	-0.576674	-0.610947	-0.162853
11393		17.230709	7.242416	0.122265	-0.630610	-2.653460	2.862484	0.509514	-0.588873	-0.609347	-0.149397
11394		19.307686	12.175995	3.791416	-0.457206	-2.609539	3.177854	0.502304	-0.601293	-0.606630	-0.134676
11395		19.576325	10.927116	2.704956	-0.727323	-2.662297	3.252854	0.493956	-0.614407	-0.603354	-0.120315
11396		23.071178	8.342017	0.840889	-0.935593	-2.645223	3.199673	0.484761	-0.627570	-0.599802	-0.106768
11397		23.718274	8.125714	-1.284359	-1.018021	-2.309164	3.247246	0.476137	-0.640677	-0.594928	-0.094269
11398		22.864429	6.085274	-1.865691	-1.244901	-2.365727	3.304029	0.466435	-0.654209	-0.589661	-0.082153
11399		21.800736	1.298226	-2.957046	-1.873410	-2.478774	3.175119	0.454077	-0.668614	-0.584489	-0.071710
11400		17.535062	-4.745102	-4.245551	-2.637826	-2.458053	2.888385	0.438909	-0.683567	-0.579622	-0.064295
11401		15.997738	-9.783580	-8.269007	-3.003515	-2.167562	2.564899	0.423012	-0.698020	-0.574705	-0.059526
11402		14.065677	-12.124011	-13.214498	-2.644040	-1.579599	2.175782	0.409790	-0.710125	-0.569719	-0.056708
11403		10.652725	-12.612430	-14.479075	-1.577160	-1.027508	1.717564	0.401696	-0.718450	-0.565321	-0.053691
11404		6.807361	-10.150938	-13.999785	-0.559738	-0.599691	1.199148	0.398315	-0.723043	-0.562137	-0.050554
11405		5.288038	-8.010451	-13.595626	-0.115944	0.096479	0.789313	0.398379	-0.725485	-0.559037	-0.049425
11406		4.468950	-5.056844	-12.823237	-0.072422	0.693391	0.588163	0.400236	-0.727133	-0.555431	-0.050834
11407		3.927232	-4.285148	-11.825516	-0.197866	0.919628	0.452656	0.402215	-0.728642	-0.551754	-0.053585
11408		4.092431	-4.566572	-10.474228	-0.456171	0.727590	0.181273	0.402488	-0.730810	-0.548270	-0.057617
11409		5.067226	-6.537954	-9.756152	-0.471023	0.594292	-0.201725	0.402390	-0.731125	-0.547516	-0.061356
11410		6.420941	-8.467964	-8.818421	-0.184865	0.784768	-0.596769	0.403582	-0.730491	-0.546887	-0.066482
11411		5.187119	-8.768263	-7.538462	-0.048866	1.264070	-1.010706	0.406596	-0.727532	-0.547736	-0.073228
11412		3.043848	-9.005389	-6.993315	0.094630	1.777544	-1.439264	0.411212	-0.723512	-0.548238	-0.082881
11413		1.349598	-8.917049	-6.798921	0.278557	2.169324	-1.844597	0.417485	-0.717134	-0.550119	-0.093777
11414		-0.080487	-9.165472	-6.670366	0.458477	2.606693	-2.245744	0.425158	-0.709536	-0.551654	-0.107126
11415		-1.658344	-8.551736	-6.897652	0.671443	2.997557	-2.549757	0.434526	-0.699613	-0.554070	-0.121384
11416		-2.956677	-7.197198	-6.723783	0.739120	3.274417	-2.790805	0.444458	-0.688764	-0.556077	-0.137257
11417		-3.914679	-6.025679	-6.771259	0.724959	3.430233	-3.028748	0.454505	-0.676511	-0.558649	-0.153847
11418		-4.716269	-5.302803	-7.014222	0.724729	3.511401	-3.262253	0.464281	-0.663334	-0.561297	-0.171396
11419		-4.663806	-5.094884	-7.157177	0.740108	3.460813	-3.483645	0.473573	-0.648985	-0.564657	-0.188970
11420		-4.186190	-4.890246	-6.421629	0.705783	3.359353	-3.720893	0.481905	-0.633800	-0.568548	-0.206926
11421		-3.260057	-4.841943	-5.438104	0.644364	3.431862	-4.035948	0.489659	-0.617309	-0.572865	-0.225808
11422		-2.709605	-4.940178	-4.846634	0.363778	3.561113	-4.378780	0.496172	-0.599912	-0.577137	-0.246641
11423		-1.439804	-5.702419	-4.983664	-0.109820	3.654663	-4.631103	0.500847	-0.582400	-0.580805	-0.269495
11424		-0.601163	-7.804718	-5.976514	-0.487879	3.837741	-4.797881	0.504246	-0.564649	-0.583377	-0.294242
11425		-0.396006	-8.366855	-6.872868	-0.561532	3.987260	-4.971086	0.507189	-0.545779	-0.585393	-0.319686
11426		-0.343332	-11.159515	-7.234463	-0.561490	4.178050	-5.248703	0.509692	-0.525226	-0.587008	-0.346082
11427		-0.422349	-9.476595	-5.109272	-0.609870	4.372628	-5.675752	0.511352	-0.502581	-0.588404	-0.373782
11428		1.122549	-10.747950	-4.701960	-0.818856	4.487787	-5.980521	0.511577	-0.478681	-0.589056	-0.402699
11429		3.841930	-11.168622	-7.393941	-0.386530	4.517734	-5.871031	0.512437	-0.453274	-0.589432	-0.429558
11430		5.456159	-8.315116	-9.882483	0.127885	4.512747	-5.621138	0.514237	-0.426699	-0.589616	-0.453697
11431		8.530610	-3.057795	-9.270884	0.690835	4.324783	-5.316324	0.516727	-0.399421	-0.590247	-0.474410
11432		15.196911	1.244463	-8.752654	0.663261	4.211216	-4.975505	0.519012	-0.373043	-0.589824	-0.493531
11433		15.386994	11.225461	-1.566296	0.835335	3.398733	-4.503441	0.519822	-0.349202	-0.590583	-0.508974
11434		14.434461	15.303019	3.790596	-0.906369	2.803840	-3.965199	0.516805	-0.332780	-0.587173	-0.526686
11435		10.203666	18.704929	7.921360	-1.273402	2.297325	-2.762160	0.514523	-0.322033	-0.581947	-0.541201
11436		7.903869	14.430602	19.906449	-1.613144	1.641008	-1.297400	0.513441	-0.318133	-0.575187	-0.551661
11437		8.368453	1.071476	17.892645	-1.589034	0.538512	0.095005	0.512864	-0.321142	-0.569230	-0.556610
11438		11.873012	-4.779829	8.476100	-0.815260	-0.425001	1.266321	0.513791	-0.328102	-0.566178	-0.554808
11439		10.184098	-5.191640	2.436785	-0.212883	-1.180245	2.005588	0.515478	-0.337613	-0.565598	-0.548087
11440		8.142726	-6.473889	-2.104704	0.475853	-1.710839	2.180977	0.517114	-0.347177	-0.567941	-0.538056
11441		9.256564	-4.929607	-5.618418	1.470750	-1.906912	2.077527	0.519503	-0.354263	-0.573541	-0.525038
11442		11.478332	2.911764	-5.677437	2.410901	-1.716993	1.743367	0.523071	-0.357309	-0.581530	-0.510441
11443		11.894077	15.355491	-4.295883	2.283681	-1.323538	1.454391	0.526740	-0.358786	-0.588465	-0.497520
11444		15.066973	11.820122	0.089673	1.216735	-0.802280	1.520736	0.530148	-0.362003	-0.591116	-0.488343
11445		13.369633	1.079670	0.784092	0.580411	-0.680363	1.778779	0.533379	-0.367377	-0.591358	-0.480455
11446		12.511009	-7.519641	-2.621860	0.293467	-1.153348	1.633142	0.534247	-0.374136	-0.592396	-0.472937
11447		12.135940	-13.345212	-5.310468	1.011506	-1.240250	1.484206	0.535786	-0.378671	-0.595565	-0.463513
11448		11.704145	-11.084665	-7.960539	1.792099	-1.352758	1.392952	0.538130	-0.381006	-0.600956	-0.451777
11449		9.992353	-8.532830	-8.613839	2.311751	-1.616144	1.239916	0.540208	-0.381945	-0.608395	-0.438348
11450		8.636478	-6.156451	-8.643840	2.453910	-1.810874	1.219110	0.541743	-0.382764	-0.616576	-0.424075
11451		7.726248	-2.595019	-7.438214	2.086668	-1.723180	1.461271	0.543243	-0.385048	-0.623121	-0.410299
11452		7.393646	-2.392488	-8.547564	1.539612	-1.362045	1.716377	0.545223	-0.388878	-0.626948	-0.398048
11453		8.158413	-1.874347	-7.673768	0.566915	-0.893015	2.040878	0.547395	-0.395447	-0.626799	-0.388720
11454		9.914983	0.365418	-6.196849	-0.595663	-0.446947	2.156888	0.548830	-0.404788	-0.622818	-0.383445
11455		9.874609	0.958033	-6.449514	-1.560831	-0.147106	1.811700	0.548612	-0.415084	-0.616687	-0.382658
