// General information: 
//  MT Manager version: 2019.1.1 
//  XDA version: 2019.1.1 build 3010 rev 85319 built on 2019-03-01
// Device information: 
//  DeviceId: 00B484A2
//  ProductCode: MTW2-3A7G6
//  Firmware Version: 4.6.0
//  Hardware Version: 2.0.0
// Device settings: 
//  Filter Profile: human(46.1)
//  Option Flags: Orientation Smoother Disabled, AHS Disabled, ICC Disabled
// Coordinate system: ENU
PacketCounter	SampleTimeFine	Acc_X	Acc_Y	Acc_Z	Gyr_X	Gyr_Y	Gyr_Z	Quat_q0	Quat_q1	Quat_q2	Quat_q3
10291		9.633394	0.300061	-1.948319	0.074220	-0.018220	-0.060728	0.434992	0.576797	-0.526499	0.448203
10292		9.601172	0.262267	-1.857880	0.083861	-0.021053	-0.055911	0.434869	0.577170	-0.526193	0.448202
10293		9.595095	0.286383	-1.872026	0.098771	-0.020400	-0.053228	0.434704	0.577569	-0.525856	0.448242
10294		9.609315	0.307598	-1.899318	0.108940	-0.013179	-0.049582	0.434514	0.577961	-0.525495	0.448345
10295		9.649443	0.305632	-1.927581	0.114701	-0.008119	-0.051002	0.434330	0.578361	-0.525102	0.448467
10296		9.624136	0.282313	-1.962109	0.094676	-0.017529	-0.046687	0.434169	0.578724	-0.524790	0.448521
10297		9.545571	0.249949	-1.987860	0.119225	-0.043732	-0.039192	0.433853	0.579186	-0.524496	0.448575
10298		9.562603	0.243628	-1.964216	0.140921	-0.050489	-0.038468	0.433452	0.579711	-0.524167	0.448668
10299		9.689019	0.228901	-1.907342	0.127036	-0.038146	-0.047264	0.433147	0.580198	-0.523819	0.448741
10300		9.699673	0.190237	-1.886073	0.148131	-0.014756	-0.053416	0.432852	0.580686	-0.523360	0.448929
10301		9.647509	0.340615	-1.860022	0.207974	-0.038460	-0.049078	0.432317	0.581355	-0.522822	0.449206
10302		9.592654	0.381859	-1.820457	0.244225	-0.049803	-0.047047	0.431637	0.582123	-0.522230	0.449553
10303		9.573927	0.320470	-2.018204	0.279655	-0.041256	-0.058548	0.430910	0.582978	-0.521504	0.449985
10304		9.485367	0.296554	-1.972888	0.305256	-0.034900	-0.062128	0.430128	0.583879	-0.520697	0.450500
10305		9.376620	0.275875	-1.914029	0.294808	-0.043743	-0.073950	0.429385	0.584809	-0.519893	0.450929
10306		9.460256	0.276096	-2.057598	0.275215	-0.059543	-0.076694	0.428661	0.585734	-0.519162	0.451261
10307		9.595838	0.229985	-2.202614	0.276775	-0.028767	-0.066224	0.427989	0.586568	-0.518390	0.451703
10308		9.763990	0.231785	-2.041376	0.248184	-0.018546	-0.048012	0.427372	0.587270	-0.517716	0.452148
10309		9.859573	0.259363	-1.993428	0.208313	-0.008177	-0.020354	0.426839	0.587791	-0.517193	0.452571
10310		9.791152	0.280298	-1.924324	0.180279	0.002159	0.004016	0.426352	0.588162	-0.516789	0.453010
10311		9.748556	0.380714	-1.832462	0.152425	-0.009299	0.027319	0.425865	0.588445	-0.516538	0.453387
10312		9.657227	0.375857	-1.838245	0.091040	-0.013886	0.042944	0.425510	0.588561	-0.516487	0.453627
10313		9.565231	0.348448	-1.972927	0.031382	-0.000864	0.055641	0.425328	0.588492	-0.516583	0.453779
10314		9.467314	0.413739	-1.957481	0.016626	-0.007918	0.053526	0.425169	0.588410	-0.516722	0.453875
10315		9.468231	0.462183	-1.968210	0.011311	-0.020818	0.053476	0.425000	0.588349	-0.516899	0.453912
10316		9.484411	0.478360	-2.038571	0.023330	-0.023418	0.043830	0.424814	0.588339	-0.517026	0.453954
10317		9.540050	0.540084	-2.102715	0.024673	-0.010911	0.029563	0.424689	0.588343	-0.517080	0.454004
10318		9.541006	0.487117	-2.135998	0.029908	0.002348	0.019688	0.424598	0.588359	-0.517061	0.454091
10319		9.566252	0.512069	-2.103500	0.040575	0.013879	0.012528	0.424530	0.588381	-0.516977	0.454221
10320		9.601032	0.493771	-2.003278	0.040283	0.009710	0.005425	0.424465	0.588428	-0.516883	0.454328
10321		9.605190	0.499872	-2.086617	0.030640	0.011041	0.006180	0.424433	0.588452	-0.516809	0.454411
10322		9.573689	0.510138	-1.958602	0.018108	0.012113	0.015181	0.424418	0.588423	-0.516788	0.454486
10323		9.553468	0.407415	-1.968168	0.006127	-0.006695	0.013937	0.424394	0.588416	-0.516830	0.454470
10324		9.532138	0.354772	-1.945981	0.016684	-0.007174	0.015904	0.424336	0.588429	-0.516852	0.454482
10325		9.553344	0.404036	-1.969464	-0.002599	-0.004518	0.017402	0.424335	0.588389	-0.516920	0.454457
10326		9.575516	0.403617	-2.025123	-0.015001	0.001415	0.013639	0.424389	0.588318	-0.516993	0.454416
10327		9.620824	0.427102	-2.006360	-0.031314	0.003992	0.016826	0.424494	0.588198	-0.517109	0.454341
10328		9.682748	0.471695	-2.054975	-0.043729	0.017078	0.016701	0.424672	0.588017	-0.517227	0.454276
10329		9.679265	0.463221	-1.968829	-0.058319	0.019100	0.026743	0.424870	0.587778	-0.517403	0.454198
10330		9.666009	0.394489	-1.973838	-0.085102	0.007561	0.030651	0.425111	0.587492	-0.517679	0.454028
10331		9.661065	0.331998	-1.879720	-0.109222	-0.001077	0.032782	0.425392	0.587175	-0.518032	0.453773
10332		9.678958	0.220396	-1.874616	-0.119921	-0.004102	0.037950	0.425681	0.586825	-0.518433	0.453497
10333		9.674039	0.189035	-1.920515	-0.114303	-0.009724	0.039914	0.425936	0.586499	-0.518836	0.453217
10334		9.674658	0.137113	-1.954404	-0.106025	-0.013787	0.045756	0.426137	0.586191	-0.519242	0.452963
10335		9.634133	0.140328	-1.928507	-0.109730	-0.011273	0.044256	0.426365	0.585867	-0.519651	0.452699
10336		9.591491	0.068527	-2.022726	-0.101296	-0.002007	0.035317	0.426614	0.585557	-0.519995	0.452469
10337		9.576232	0.099434	-1.963819	-0.091660	-0.003344	0.034567	0.426833	0.585278	-0.520317	0.452254
10338		9.579542	0.155871	-2.014673	-0.073582	0.003215	0.030507	0.427029	0.585027	-0.520573	0.452099
10339		9.504590	0.144895	-1.947939	-0.040727	0.001151	0.026886	0.427130	0.584867	-0.520745	0.452013
10340		9.614372	0.167545	-2.053800	-0.032915	-0.001882	0.020665	0.427217	0.584747	-0.520883	0.451926
10341		9.634602	0.163637	-2.067086	-0.015226	0.005362	0.014520	0.427284	0.584664	-0.520952	0.451891
10342		9.568601	0.191180	-2.038631	-0.008641	0.003151	0.007781	0.427338	0.584618	-0.520987	0.451859
10343		9.564575	0.182473	-1.954851	-0.005985	-0.009558	0.004317	0.427365	0.584615	-0.521035	0.451783
10344		9.571920	0.166221	-1.985661	0.007571	-0.016023	-0.001426	0.427346	0.584669	-0.521047	0.451716
10345		9.552657	0.069514	-2.040342	0.030578	-0.019942	-0.007150	0.427268	0.584799	-0.520998	0.451679
10346		9.626716	0.128846	-2.075129	0.038615	-0.011320	-0.012507	0.427202	0.584938	-0.520895	0.451680
10347		9.611339	0.160985	-2.016968	0.061293	-0.007762	-0.006664	0.427065	0.585105	-0.520751	0.451759
10348		9.616829	0.293482	-1.948098	0.069598	-0.010561	-0.006545	0.426901	0.585291	-0.520595	0.451853
10349		9.597811	0.349015	-1.944607	0.071945	-0.007333	-0.000435	0.426720	0.585464	-0.520444	0.451973
10350		9.546037	0.393401	-1.943933	0.062676	-0.015110	0.004436	0.426531	0.585621	-0.520345	0.452063
10351		9.572887	0.422657	-1.955504	0.041214	-0.013684	0.008455	0.426401	0.585720	-0.520304	0.452104
10352		9.547519	0.394452	-1.988818	0.011354	-0.010406	0.008082	0.426367	0.585744	-0.520324	0.452082
10353		9.603587	0.458953	-2.051537	0.002118	-0.002614	0.014587	0.426364	0.585717	-0.520369	0.452069
10354		9.595280	0.523792	-1.989989	-0.024193	-0.019655	0.015516	0.426387	0.585672	-0.520509	0.451944
10355		9.664698	0.469983	-1.965373	-0.040022	-0.023906	0.021439	0.426435	0.585586	-0.520715	0.451773
10356		9.664845	0.419035	-2.000722	-0.060977	-0.028054	0.022462	0.426534	0.585459	-0.520978	0.451540
10357		9.599374	0.347004	-2.041507	-0.070544	-0.032844	0.023874	0.426642	0.585321	-0.521280	0.451269
10358		9.602480	0.321943	-1.990067	-0.074153	-0.036526	0.022968	0.426754	0.585184	-0.521592	0.450979
10359		9.633625	0.228636	-2.015372	-0.062657	-0.040718	0.012603	0.426846	0.585110	-0.521858	0.450680
10360		9.627724	0.199493	-2.064552	-0.036653	-0.034985	0.000850	0.426904	0.585107	-0.522016	0.450447
10361		9.665431	0.223130	-2.190855	-0.028710	-0.021514	0.000549	0.426975	0.585092	-0.522129	0.450268
10362		9.591547	0.268691	-2.134830	-0.015956	-0.018104	-0.011344	0.427045	0.585127	-0.522167	0.450112
10363		9.569602	0.218889	-2.114380	-0.004367	-0.022689	-0.011788	0.427072	0.585198	-0.522190	0.449966
10364		9.629482	0.211931	-2.156979	0.013727	-0.016185	-0.015918	0.427077	0.585297	-0.522148	0.449882
10365		9.656317	0.244154	-2.168012	0.013039	-0.005367	-0.017777	0.427112	0.585381	-0.522078	0.449821
10366		9.579610	0.231944	-2.059630	0.024238	-0.002111	-0.016615	0.427125	0.585476	-0.521977	0.449802
10367		9.586442	0.266812	-2.056611	0.019600	-0.008898	-0.018846	0.427134	0.585585	-0.521896	0.449745
10368		9.546477	0.224056	-2.063567	0.021243	-0.009118	-0.021950	0.427146	0.585702	-0.521803	0.449690
10369		9.557496	0.185311	-2.039954	0.017014	-0.016621	-0.022117	0.427151	0.585831	-0.521734	0.449597
10370		9.639994	0.098089	-2.033130	0.021400	-0.028591	-0.024397	0.427118	0.586003	-0.521671	0.449478
10371		9.624055	0.164043	-2.115616	0.041913	-0.034798	-0.014141	0.426986	0.586209	-0.521605	0.449411
10372		9.694525	0.165875	-2.101476	0.050650	-0.028552	-0.019671	0.426852	0.586436	-0.521487	0.449379
10373		9.626430	0.173572	-2.204726	0.035702	-0.008916	-0.015640	0.426807	0.586573	-0.521378	0.449370
10374		9.624520	0.170146	-2.163332	0.047003	-0.003380	-0.015889	0.426748	0.586719	-0.521229	0.449408
10375		9.585504	0.229872	-2.145402	0.070818	-0.000250	-0.019533	0.426632	0.586921	-0.521011	0.449507
10376		9.599306	0.297497	-2.138713	0.076659	-0.001383	-0.020439	0.426500	0.587138	-0.520777	0.449620
10377		9.594767	0.371602	-2.160474	0.085792	0.002853	-0.018221	0.426345	0.587362	-0.520522	0.449769
10378		9.545306	0.389368	-2.062032	0.079513	-0.003704	-0.017313	0.426187	0.587586	-0.520295	0.449890
10379		9.553725	0.427149	-2.101751	0.070565	-0.011829	-0.020283	0.426045	0.587816	-0.520098	0.449952
10380		9.567143	0.495097	-2.096701	0.060085	-0.017478	-0.021566	0.425924	0.588036	-0.519932	0.449971
10381		9.590788	0.469386	-2.057475	0.046234	-0.015201	-0.022953	0.425850	0.588227	-0.519790	0.449954
10382		9.625500	0.435168	-2.131164	0.034658	-0.003528	-0.018900	0.425830	0.588354	-0.519661	0.449955
10383		9.644321	0.379618	-2.135837	0.035686	-0.000426	-0.017597	0.425812	0.588475	-0.519529	0.449967
10384		9.600051	0.409783	-2.163478	0.026047	-0.000380	-0.011129	0.425808	0.588555	-0.519438	0.449972
10385		9.541371	0.422085	-2.165306	0.023579	-0.008470	-0.004428	0.425773	0.588636	-0.519389	0.449956
10386		9.585370	0.392911	-2.138715	0.004908	-0.009109	-0.007253	0.425797	0.588683	-0.519374	0.449889
10387		9.608687	0.398067	-2.237235	0.001735	-0.006401	-0.002467	0.425826	0.588706	-0.519377	0.449828
10388		9.585549	0.497148	-2.116806	-0.003088	-0.010595	0.001790	0.425852	0.588716	-0.519410	0.449751
10389		9.572760	0.483607	-2.133405	-0.023082	-0.005542	0.003499	0.425941	0.588669	-0.519486	0.449641
10390		9.541642	0.477018	-2.178131	-0.030265	-0.004537	-0.000363	0.426065	0.588613	-0.519562	0.449510
10391		9.559345	0.521113	-2.117192	-0.031601	-0.005970	0.000542	0.426185	0.588555	-0.519649	0.449371
10392		9.582792	0.391566	-2.100142	-0.039301	-0.006509	-0.003965	0.426337	0.588492	-0.519740	0.449204
10393		9.600998	0.367887	-2.243434	-0.045244	0.000809	-0.003675	0.426524	0.588400	-0.519832	0.449041
10394		9.584892	0.347997	-2.175357	-0.037255	-0.007433	-0.004995	0.426669	0.588347	-0.519916	0.448875
10395		9.553749	0.342003	-2.220095	-0.034371	-0.002656	0.001731	0.426803	0.588273	-0.520006	0.448740
10396		9.557083	0.368333	-2.133254	-0.018892	-0.013572	0.002060	0.426863	0.588258	-0.520081	0.448616
10397		9.577475	0.316078	-2.180834	-0.027612	-0.010077	-0.000106	0.426962	0.588220	-0.520165	0.448473
10398		9.582463	0.346451	-2.136223	-0.025048	-0.009460	-0.000494	0.427059	0.588187	-0.520239	0.448340
10399		9.626504	0.317584	-2.109669	-0.021664	-0.008955	-0.002435	0.427149	0.588165	-0.520301	0.448210
10400		9.580426	0.343586	-2.095633	-0.017244	-0.006667	0.002600	0.427223	0.588133	-0.520361	0.448112
10401		9.625585	0.367941	-2.078323	-0.008736	-0.013367	0.001912	0.427254	0.588139	-0.520415	0.448012
10402		9.619685	0.387682	-2.091542	-0.011378	-0.001997	0.010996	0.427302	0.588087	-0.520477	0.447961
10403		9.572670	0.358990	-2.067725	-0.023593	0.000052	0.006516	0.427400	0.588018	-0.520552	0.447873
10404		9.593432	0.324193	-1.943080	-0.021250	-0.010969	0.005310	0.427469	0.587980	-0.520638	0.447756
10405		9.648290	0.286533	-2.030042	-0.034380	-0.002631	0.001763	0.427603	0.587905	-0.520728	0.447622
10406		9.555768	0.234439	-2.024968	-0.036440	-0.010126	0.004843	0.427716	0.587835	-0.520845	0.447470
10407		9.628275	0.239733	-2.051596	-0.035531	-0.026152	0.011624	0.427770	0.587787	-0.521016	0.447283
10408		9.688051	0.231176	-2.094519	-0.034595	-0.016881	0.012310	0.427846	0.587718	-0.521164	0.447129
10409		9.596013	0.282000	-2.066153	-0.036438	-0.011426	0.010536	0.427943	0.587637	-0.521302	0.446981
10410		9.613815	0.324563	-2.005392	-0.041143	-0.006241	0.017038	0.428049	0.587520	-0.521456	0.446854
10411		9.609063	0.397805	-2.027634	-0.034386	-0.013666	0.015176	0.428123	0.587437	-0.521608	0.446714
10412		9.636356	0.378105	-2.071747	-0.026367	-0.006372	0.015441	0.428193	0.587353	-0.521725	0.446621
10413		9.596628	0.332729	-2.078070	-0.020004	-0.005973	0.015162	0.428244	0.587284	-0.521829	0.446541
10414		9.559759	0.345457	-2.135008	-0.028105	0.001345	0.012262	0.428351	0.587183	-0.521926	0.446458
10415		9.501297	0.356729	-2.135887	-0.019166	0.001033	0.017264	0.428413	0.587094	-0.522020	0.446406
10416		9.593757	0.408178	-2.141585	-0.024735	-0.006582	0.012341	0.428487	0.587021	-0.522124	0.446308
10417		9.595747	0.428664	-2.012473	-0.016727	-0.007727	0.014628	0.428525	0.586964	-0.522223	0.446231
10418		9.586655	0.439844	-1.941521	-0.032958	-0.009946	0.012881	0.428613	0.586881	-0.522354	0.446103
10419		9.601682	0.357474	-2.034527	-0.056765	-0.004613	0.014574	0.428776	0.586730	-0.522536	0.445932
10420		9.640480	0.298001	-2.053467	-0.061192	-0.008188	0.015231	0.428944	0.586573	-0.522736	0.445742
10421		9.632970	0.313567	-2.024652	-0.054628	-0.013025	0.019832	0.429067	0.586432	-0.522947	0.445562
10422		9.604887	0.314431	-2.153958	-0.054713	-0.008167	0.024912	0.429192	0.586266	-0.523160	0.445410
10423		9.587601	0.237441	-2.077884	-0.043838	-0.010364	0.024591	0.429279	0.586130	-0.523355	0.445276
10424		9.600540	0.199408	-2.095927	-0.049876	-0.006611	0.032024	0.429378	0.585953	-0.523575	0.445155
10425		9.612900	0.260412	-2.046941	-0.040017	-0.003465	0.028380	0.429463	0.585800	-0.523758	0.445059
10426		9.610090	0.336811	-2.110179	-0.041657	-0.003238	0.031500	0.429550	0.585633	-0.523951	0.444968
10427		9.570411	0.290604	-2.116031	-0.045955	0.003887	0.028742	0.429669	0.585450	-0.524133	0.444879
10428		9.551819	0.345339	-2.110683	-0.047926	-0.001339	0.030404	0.429779	0.585268	-0.524333	0.444776
10429		9.571908	0.340870	-2.124418	-0.047631	-0.002981	0.028200	0.429887	0.585098	-0.524532	0.444662
10430		9.583129	0.348068	-2.066256	-0.045254	0.001541	0.028618	0.430002	0.584922	-0.524712	0.444569
10431		9.577529	0.366621	-2.078449	-0.047639	-0.002963	0.028217	0.430110	0.584751	-0.524911	0.444454
10432		9.575925	0.360497	-2.036736	-0.050844	-0.007356	0.029374	0.430215	0.584579	-0.525127	0.444325
10433		9.594541	0.302162	-2.042305	-0.050217	-0.003544	0.028637	0.430328	0.584404	-0.525333	0.444202
10434		9.623428	0.286568	-2.128064	-0.052087	-0.005170	0.023213	0.430457	0.584240	-0.525528	0.444062
10435		9.557652	0.313385	-2.099541	-0.048583	-0.005082	0.031217	0.430555	0.584065	-0.525742	0.443944
10436		9.601586	0.330958	-2.039460	-0.055074	-0.006360	0.027253	0.430680	0.583889	-0.525956	0.443800
10437		9.594412	0.295937	-2.043824	-0.055601	-0.007888	0.026606	0.430802	0.583717	-0.526177	0.443646
10438		9.601582	0.278579	-2.074190	-0.061047	-0.007420	0.029641	0.430936	0.583523	-0.526415	0.443489
10439		9.612787	0.236220	-2.050404	-0.055200	-0.008589	0.028689	0.431050	0.583347	-0.526643	0.443338
10440		9.625534	0.198462	-2.068795	-0.059531	-0.009876	0.027946	0.431178	0.583164	-0.526879	0.443174
10441		9.652724	0.178425	-2.112735	-0.059379	-0.000506	0.030258	0.431321	0.582957	-0.527104	0.443040
10442		9.574414	0.191760	-2.099265	-0.048522	0.010509	0.033018	0.431455	0.582739	-0.527288	0.442978
10443		9.552977	0.187841	-2.042916	-0.043243	0.000700	0.027693	0.431561	0.582570	-0.527467	0.442883
10444		9.593035	0.180624	-2.070408	-0.040901	-0.003229	0.030094	0.431647	0.582407	-0.527653	0.442793
10445		9.594617	0.232660	-2.078741	-0.034116	-0.002258	0.026168	0.431722	0.582269	-0.527813	0.442710
10446		9.593048	0.226115	-2.036822	-0.022593	-0.000728	0.025052	0.431773	0.582154	-0.527937	0.442664
10447		9.607527	0.241961	-2.062577	-0.016101	0.001883	0.023345	0.431813	0.582054	-0.528039	0.442634
10448		9.640486	0.250564	-2.059766	-0.014641	0.005577	0.021048	0.431866	0.581952	-0.528121	0.442619
10449		9.549431	0.250682	-2.062289	-0.016463	0.008360	0.030684	0.431907	0.581817	-0.528232	0.442624
10450		9.555209	0.277344	-2.015838	-0.025583	-0.000574	0.023408	0.431973	0.581697	-0.528359	0.442566
10451		9.600803	0.249861	-2.031444	-0.022128	-0.006266	0.022013	0.432013	0.581606	-0.528487	0.442494
10452		9.595122	0.219564	-2.077834	-0.017272	-0.002095	0.017749	0.432063	0.581525	-0.528579	0.442441
10453		9.583892	0.209976	-2.136147	-0.009253	-0.001975	0.014310	0.432095	0.581471	-0.528647	0.442400
10454		9.616775	0.219123	-2.133651	-0.004280	0.003110	0.014328	0.432127	0.581414	-0.528691	0.442390
10455		9.556848	0.225820	-2.092145	0.002099	0.003447	0.014015	0.432141	0.581374	-0.528722	0.442393
10456		9.615254	0.211523	-2.091553	0.006547	-0.007617	0.015907	0.432113	0.581361	-0.528768	0.442383
10457		9.636955	0.261274	-2.113610	0.015151	0.002473	0.011162	0.432094	0.581359	-0.528762	0.442411
10458		9.588300	0.276232	-2.013802	0.004498	0.007947	0.014439	0.432114	0.581309	-0.528777	0.442439
10459		9.588368	0.275053	-2.013636	0.000287	-0.004339	0.009142	0.432124	0.581295	-0.528813	0.442404
10460		9.662910	0.283891	-2.080481	-0.007028	0.007786	0.009880	0.432189	0.581233	-0.528840	0.442391
10461		9.582892	0.244888	-2.058927	-0.015395	0.003575	0.006147	0.432272	0.581174	-0.528886	0.442332
10462		9.590076	0.228929	-2.088761	-0.017093	-0.003296	0.005558	0.432346	0.581126	-0.528946	0.442251
10463		9.582841	0.244467	-2.059213	-0.011241	-0.004498	0.004582	0.432400	0.581098	-0.528996	0.442176
10464		9.584230	0.199818	-2.135605	-0.001992	-0.005225	0.001636	0.432434	0.581099	-0.529013	0.442120
10465		9.567866	0.127879	-2.102464	0.016795	-0.009672	-0.000799	0.432407	0.581159	-0.528994	0.442091
10466		9.623862	0.193764	-2.164823	0.032010	-0.010683	-0.000434	0.432336	0.581252	-0.528940	0.442103
10467		9.615007	0.204097	-2.093425	0.044653	0.002336	-0.002199	0.432262	0.581349	-0.528829	0.442180
10468		9.596651	0.210728	-2.121571	0.048454	0.002090	-0.002101	0.432181	0.581451	-0.528708	0.442269
10469		9.589538	0.225655	-2.091583	0.043828	0.002459	-0.000623	0.432106	0.581542	-0.528603	0.442347
10470		9.611297	0.276238	-2.113479	0.044412	-0.000831	-0.005067	0.432034	0.581652	-0.528487	0.442412
10471		9.576864	0.260665	-2.073838	0.041367	0.004146	-0.001608	0.431973	0.581737	-0.528381	0.442487
10472		9.611404	0.274888	-2.113171	0.045167	0.003901	-0.001509	0.431903	0.581828	-0.528264	0.442576
10473		9.576994	0.258956	-2.073452	0.045455	0.000920	0.001960	0.431814	0.581919	-0.528166	0.442659
10474		9.562559	0.289497	-2.014458	0.054810	-0.012142	0.000191	0.431672	0.582061	-0.528068	0.442728
10475		9.585585	0.294768	-2.113248	0.052176	-0.006549	0.000022	0.431549	0.582189	-0.527965	0.442803
10476		9.612786	0.324501	-2.123657	0.049015	-0.002495	-0.000810	0.431449	0.582302	-0.527854	0.442884
10477		9.565719	0.394319	-2.033066	0.039770	-0.001769	0.002128	0.431369	0.582387	-0.527775	0.442945
10478		9.571252	0.373268	-2.021076	0.032169	0.000060	-0.003750	0.431332	0.582462	-0.527690	0.442983
10479		9.552654	0.330737	-2.083365	0.032751	-0.004571	-0.002501	0.431276	0.582549	-0.527619	0.443007
10480		9.583517	0.286742	-2.073866	0.036958	-0.018808	-0.003444	0.431179	0.582677	-0.527563	0.443001
10481		9.604762	0.288298	-2.131208	0.031754	-0.012483	-0.008912	0.431120	0.582796	-0.527492	0.442986
10482		9.615642	0.247851	-2.107805	0.031989	-0.007961	-0.011719	0.431082	0.582911	-0.527400	0.442981
10483		9.582755	0.287192	-2.077320	0.034676	-0.006435	-0.007835	0.431028	0.583020	-0.527312	0.442994
10484		9.582567	0.287355	-2.078164	0.037014	-0.009032	-0.011110	0.430973	0.583144	-0.527214	0.443002
10485		9.599090	0.226572	-2.042242	0.043502	-0.006421	-0.012816	0.430905	0.583285	-0.527093	0.443027
10486		9.638901	0.221178	-2.070521	0.060747	-0.008330	-0.013469	0.430786	0.583468	-0.526930	0.443095
10487		9.594744	0.251521	-2.098090	0.059339	-0.003574	-0.013150	0.430681	0.583638	-0.526766	0.443169
10488		9.665996	0.252054	-2.081276	0.047584	0.004980	-0.011826	0.430631	0.583759	-0.526610	0.443244
10489		9.614968	0.298128	-2.077853	0.043313	0.009474	-0.003207	0.430582	0.583839	-0.526484	0.443336
10490		9.579047	0.278614	-1.995864	0.047639	-0.002497	-0.005520	0.430499	0.583958	-0.526363	0.443402
10491		9.562061	0.289572	-2.066877	0.043897	-0.008422	-0.005012	0.430406	0.584085	-0.526268	0.443439
10492		9.576219	0.306664	-2.094136	0.047344	-0.014107	-0.006362	0.430295	0.584232	-0.526169	0.443469
10493		9.623170	0.284757	-2.152161	0.040442	-0.001404	-0.009337	0.430240	0.584347	-0.526054	0.443508
10494		9.630407	0.318532	-2.148566	0.034302	0.002755	-0.011857	0.430223	0.584440	-0.525935	0.443543
10495		9.590354	0.274664	-2.154281	0.049202	0.003473	-0.009221	0.430156	0.584562	-0.525790	0.443620
10496		9.588869	0.270209	-2.111926	0.058664	0.005977	-0.009256	0.430071	0.584696	-0.525615	0.443733
10497		9.550464	0.279755	-2.126465	0.056968	-0.000894	-0.009793	0.429971	0.584846	-0.525460	0.443815
10498		9.563197	0.293000	-2.110988	0.049839	-0.005989	-0.013007	0.429889	0.584998	-0.525319	0.443862
10499		9.564575	0.297005	-2.153866	0.058250	-0.007871	-0.008653	0.429765	0.585164	-0.525178	0.443929
10500		9.591656	0.327524	-2.164724	0.058067	-0.002641	-0.013537	0.429670	0.585327	-0.525010	0.444006
10501		9.595754	0.352910	-2.077198	0.058935	0.004368	-0.011429	0.429581	0.585473	-0.524835	0.444105
10502		9.610193	0.370153	-2.103127	0.058930	0.004378	-0.011418	0.429496	0.585618	-0.524655	0.444209
10503		9.575829	0.355756	-2.063163	0.053671	0.002241	-0.014886	0.429425	0.585767	-0.524486	0.444281
10504		9.591762	0.377500	-2.131353	0.036323	0.001854	-0.012855	0.429404	0.585869	-0.524360	0.444315
10505		9.578822	0.315113	-2.180520	0.023652	-0.003752	-0.017343	0.429410	0.585972	-0.524264	0.444287
10506		9.584370	0.345488	-2.135355	0.038250	-0.001334	-0.012480	0.429373	0.586085	-0.524142	0.444318
10507		9.552986	0.389108	-2.147174	0.034928	-0.007979	-0.009892	0.429319	0.586203	-0.524051	0.444322
10508		9.559942	0.372991	-2.177707	0.036153	-0.008801	-0.009378	0.429262	0.586321	-0.523958	0.444331
10509		9.591039	0.379676	-2.134219	0.032177	-0.004657	-0.008698	0.429222	0.586422	-0.523870	0.444340
10510		9.551020	0.385760	-2.106870	0.017974	0.005501	-0.008478	0.429252	0.586465	-0.523791	0.444347
10511		9.640783	0.330356	-2.094292	0.016926	0.002412	-0.009774	0.429276	0.586520	-0.523719	0.444335
10512		9.598303	0.364878	-2.163156	0.017152	0.006917	-0.012611	0.429322	0.586569	-0.523626	0.444336
10513		9.565503	0.404739	-2.132227	0.019678	-0.002193	-0.005264	0.429316	0.586629	-0.523572	0.444328
10514		9.565481	0.405048	-2.132265	0.012312	0.002757	-0.008328	0.429355	0.586665	-0.523512	0.444313
10515		9.571101	0.385197	-2.119773	0.008701	-0.002228	-0.003535	0.429376	0.586697	-0.523487	0.444279
10516		9.569458	0.381500	-2.078104	0.011450	-0.005541	-0.004717	0.429389	0.586741	-0.523457	0.444244
10517		9.656537	0.403732	-2.129931	0.004906	-0.002005	-0.003648	0.429423	0.586764	-0.523440	0.444201
10518		9.585252	0.403093	-2.146809	-0.002455	0.001649	-0.001022	0.429486	0.586752	-0.523438	0.444159
10519		9.565318	0.405787	-2.132857	-0.008584	0.003185	0.007807	0.429545	0.586705	-0.523475	0.444121
10520		9.569485	0.381078	-2.078058	-0.018445	0.000072	0.011465	0.429620	0.586631	-0.523548	0.444059
10521		9.615144	0.354625	-2.092926	-0.024927	-0.001261	0.007478	0.429716	0.586559	-0.523630	0.443965
10522		9.576683	0.363919	-2.107706	-0.024106	-0.002672	0.011615	0.429800	0.586479	-0.523722	0.443881
10523		9.582269	0.343241	-2.095509	-0.021769	-0.005277	0.008365	0.429874	0.586421	-0.523808	0.443784
10524		9.594978	0.356093	-2.080241	-0.013064	-0.008803	0.010520	0.429914	0.586380	-0.523885	0.443708
10525		9.576382	0.362214	-2.109368	-0.014292	-0.007976	0.010011	0.429956	0.586340	-0.523965	0.443626
10526		9.609101	0.322252	-2.140606	-0.020723	-0.002184	0.009668	0.430036	0.586272	-0.524042	0.443548
10527		9.556314	0.314088	-2.129026	-0.014538	0.002106	0.010170	0.430104	0.586208	-0.524101	0.443496
10528		9.605177	0.345220	-2.194607	-0.019741	0.007074	0.010339	0.430204	0.586116	-0.524162	0.443449
10529		9.571077	0.379813	-2.120855	-0.008121	0.009602	0.013530	0.430265	0.586040	-0.524201	0.443443
10530		9.584164	0.392034	-2.104006	-0.022486	0.009095	0.017222	0.430361	0.585924	-0.524281	0.443410
10531		9.597256	0.404433	-2.087099	-0.025876	0.009915	0.013488	0.430474	0.585809	-0.524360	0.443359
10532		9.546219	0.400203	-2.116719	-0.028153	0.007657	0.011681	0.430595	0.585696	-0.524439	0.443296
10533		9.584784	0.340166	-2.134354	-0.035045	0.005747	0.011322	0.430729	0.585576	-0.524541	0.443204
10534		9.544847	0.345765	-2.106710	-0.039012	-0.003393	0.008981	0.430860	0.585470	-0.524661	0.443074
10535		9.583194	0.285926	-2.125274	-0.029143	-0.001589	0.011015	0.430959	0.585381	-0.524763	0.442975
10536		9.597597	0.302632	-2.151478	-0.013432	-0.000966	0.012107	0.431015	0.585318	-0.524829	0.442926
10537		9.592059	0.322132	-2.163749	-0.020386	0.003293	0.011124	0.431100	0.585236	-0.524902	0.442864
10538		9.589035	0.312987	-2.079330	-0.013609	0.001649	0.018595	0.431148	0.585152	-0.524982	0.442835
10539		9.563477	0.334617	-2.078148	-0.006364	-0.004271	0.017369	0.431159	0.585103	-0.525057	0.442800
10540		9.597876	0.347449	-2.118271	-0.004087	-0.002012	0.019181	0.431169	0.585046	-0.525124	0.442786
10541		9.553989	0.375597	-2.145115	0.003679	0.006896	0.021641	0.431170	0.584982	-0.525166	0.442819
10542		9.579958	0.399990	-2.112441	0.007300	0.010579	0.022547	0.431172	0.584912	-0.525193	0.442878
10543		9.564229	0.376427	-2.043437	0.004496	0.006780	0.020085	0.431174	0.584854	-0.525229	0.442910
10544		9.586115	0.425462	-2.065612	-0.005493	0.002738	0.019472	0.431200	0.584781	-0.525292	0.442906
10545		9.567824	0.430698	-2.093738	-0.003449	0.001792	0.018422	0.431216	0.584722	-0.525351	0.442899
10546		9.527706	0.385108	-2.099656	-0.017472	-0.006519	0.020531	0.431250	0.584642	-0.525462	0.442839
10547		9.580475	0.391247	-2.111735	-0.016771	-0.007589	0.014694	0.431289	0.584584	-0.525560	0.442762
10548		9.595483	0.325418	-2.032972	-0.030206	-0.005932	0.015421	0.431373	0.584488	-0.525684	0.442660
10549		9.640936	0.298908	-2.048429	-0.037509	-0.005817	0.007301	0.431493	0.584399	-0.525803	0.442519
10550		9.611239	0.296812	-2.134679	-0.043580	0.005456	0.008429	0.431661	0.584265	-0.525913	0.442401
10551		9.616882	0.276295	-2.121890	-0.040432	0.000126	0.015000	0.431787	0.584137	-0.526049	0.442286
10552		9.589610	0.245313	-2.111602	-0.032019	0.000839	0.007962	0.431911	0.584041	-0.526139	0.442184
10553		9.582282	0.211423	-2.115221	-0.026707	-0.003193	0.012060	0.431996	0.583957	-0.526243	0.442088
10554		9.595182	0.224056	-2.099201	-0.020392	0.003330	0.011154	0.432086	0.583872	-0.526312	0.442029
10555		9.615447	0.270188	-2.079457	-0.013851	-0.000231	0.010060	0.432146	0.583815	-0.526375	0.441972
10556		9.628407	0.282719	-2.063195	-0.017294	0.005466	0.011410	0.432231	0.583732	-0.526432	0.441929
10557		9.621427	0.298144	-2.032985	-0.015250	0.004517	0.010356	0.432307	0.583661	-0.526489	0.441883
10558		9.575784	0.273815	-2.050850	-0.022558	0.002033	0.013627	0.432392	0.583569	-0.526572	0.441822
10559		9.601347	0.250050	-2.052074	-0.029573	-0.000803	0.008988	0.432498	0.583481	-0.526668	0.441720
10560		9.582913	0.256747	-2.080576	-0.024669	-0.004129	0.011015	0.432582	0.583402	-0.526763	0.441628
10561		9.601286	0.249051	-2.052479	-0.021570	-0.001996	0.011270	0.432657	0.583329	-0.526850	0.441548
10562		9.569990	0.242526	-2.096863	-0.022386	-0.000567	0.007138	0.432749	0.583260	-0.526919	0.441466
10563		9.602862	0.252376	-2.094650	-0.008012	-0.001418	0.009116	0.432791	0.583221	-0.526968	0.441418
10564		9.614146	0.260696	-2.036804	-0.001350	-0.002731	0.006603	0.432820	0.583203	-0.526993	0.441382
10565		9.615731	0.264228	-2.078911	0.004850	0.001529	0.007109	0.432838	0.583191	-0.527001	0.441372
10566		9.604832	0.304075	-2.103065	0.000711	0.009601	0.008614	0.432889	0.583144	-0.527003	0.441382
10567		9.617910	0.316561	-2.086309	-0.006715	0.006174	0.007602	0.432950	0.583094	-0.527029	0.441357
10568		9.558074	0.324537	-2.044677	-0.017417	0.003224	0.012837	0.433027	0.583012	-0.527096	0.441310
10569		9.571003	0.337023	-2.028610	-0.012340	-0.002712	0.008358	0.433080	0.582968	-0.527155	0.441246
10570		9.629405	0.323609	-2.027664	-0.021333	0.002525	0.008452	0.433176	0.582888	-0.527220	0.441178
10571		9.594312	0.341658	-2.125918	-0.023669	0.005138	0.011728	0.433274	0.582793	-0.527298	0.441115
10572		9.567061	0.310345	-2.115418	-0.023791	0.002885	0.013142	0.433366	0.582696	-0.527382	0.441052
10573		9.578419	0.318389	-2.057239	-0.009653	-0.001177	0.012244	0.433407	0.582645	-0.527443	0.441007
10574		9.600058	0.318751	-2.112888	-0.009823	0.002738	0.013052	0.433459	0.582579	-0.527495	0.440980
10575		9.611398	0.326687	-2.054809	-0.002992	-0.002494	0.009728	0.433482	0.582552	-0.527537	0.440944
10576		9.560154	0.322680	-2.085419	0.001986	0.002595	0.009732	0.433508	0.582522	-0.527552	0.440939
10577		9.573001	0.335186	-2.069754	0.004948	-0.009505	0.002623	0.433507	0.582546	-0.527570	0.440887
10578		9.599991	0.315813	-2.113634	-0.009648	0.000137	0.006549	0.433565	0.582506	-0.527605	0.440840
10579		9.623606	0.238083	-2.106234	0.001580	0.003310	0.007665	0.433595	0.582481	-0.527618	0.440828
10580		9.624056	0.286847	-2.072357	0.009828	0.006610	0.007116	0.433614	0.582466	-0.527600	0.440851
10581		9.591675	0.325370	-2.040526	0.009951	0.008866	0.005705	0.433639	0.582452	-0.527577	0.440873
10582		9.560556	0.318694	-2.084188	0.001702	0.005566	0.006254	0.433681	0.582423	-0.527577	0.440870
10583		9.562286	0.322358	-2.125750	0.003746	0.004612	0.005197	0.433714	0.582406	-0.527575	0.440863
10584		9.578770	0.260787	-2.088679	0.009228	-0.002043	0.002780	0.433721	0.582422	-0.527562	0.440850
10585		9.651928	0.314150	-2.080699	0.017231	-0.003252	0.005056	0.433695	0.582454	-0.527546	0.440854
10586		9.586104	0.292794	-2.085602	0.022377	-0.002078	0.004254	0.433663	0.582492	-0.527511	0.440876
10587		9.638960	0.298836	-2.097312	0.030495	-0.002337	0.010818	0.433588	0.582535	-0.527480	0.440930
10588		9.580633	0.310241	-2.098320	0.022730	0.002074	0.011418	0.433551	0.582545	-0.527458	0.440980
10589		9.579128	0.304673	-2.056011	0.016076	0.004703	0.008234	0.433541	0.582547	-0.527437	0.441011
10590		9.546359	0.293419	-2.057859	0.015669	0.005417	0.006167	0.433544	0.582548	-0.527407	0.441043
10591		9.625161	0.326008	-2.036974	0.023141	0.002671	0.007792	0.433510	0.582571	-0.527373	0.441086
10592		9.581433	0.355220	-2.063672	0.022445	0.005047	0.007943	0.433486	0.582586	-0.527333	0.441139
10593		9.596038	0.371696	-2.089504	0.017473	0.001263	0.002241	0.433478	0.582614	-0.527298	0.441151
10594		9.590569	0.391644	-2.101950	0.020626	-0.001474	-0.002593	0.433468	0.582666	-0.527245	0.441157
10595		9.543095	0.363616	-2.078490	0.022661	-0.003730	0.002054	0.433432	0.582717	-0.527208	0.441167
10596		9.570031	0.344063	-2.122540	0.022712	-0.008595	-0.003033	0.433398	0.582792	-0.527162	0.441157
10597		9.599156	0.296223	-2.070327	0.019733	-0.008470	-0.004700	0.433374	0.582865	-0.527122	0.441131
10598		9.591576	0.262586	-2.074582	0.025117	-0.004089	-0.002629	0.433345	0.582932	-0.527064	0.441142
10599		9.604351	0.275255	-2.059319	0.038833	-0.008738	0.000126	0.433254	0.583036	-0.526996	0.441175
10600		9.626234	0.324893	-2.082343	0.046737	0.001105	0.006886	0.433157	0.583111	-0.526909	0.441275
10601		9.630169	0.299134	-2.027796	0.033714	0.003384	0.003989	0.433103	0.583166	-0.526839	0.441339
10602		9.606447	0.325098	-2.068165	0.031496	0.006962	0.011546	0.433050	0.583186	-0.526784	0.441430
10603		9.606630	0.323226	-2.067609	0.034472	0.006845	0.013220	0.432982	0.583211	-0.526732	0.441525
10604		9.574265	0.360623	-2.036322	0.032180	0.003301	0.017111	0.432905	0.583227	-0.526700	0.441619
10605		9.588914	0.375494	-2.062303	0.022824	0.001787	0.021435	0.432837	0.583217	-0.526709	0.441687
10606		9.543186	0.349617	-2.080471	0.023113	0.000124	0.019223	0.432774	0.583215	-0.526710	0.441750
10607		9.598181	0.408380	-2.100884	0.018092	0.001201	0.018605	0.432725	0.583204	-0.526723	0.441798
10608		9.576643	0.405258	-2.045269	0.011069	-0.002934	0.019661	0.432688	0.583180	-0.526759	0.441822
10609		9.563640	0.390226	-2.061901	0.010058	-0.010896	0.013275	0.432644	0.583192	-0.526799	0.441801
10610		9.592608	0.423337	-2.114959	0.020597	-0.004048	0.008842	0.432602	0.583219	-0.526785	0.441825
10611		9.583481	0.384431	-2.076756	0.020307	-0.002378	0.011058	0.432555	0.583239	-0.526778	0.441852
10612		9.584638	0.337263	-2.152151	0.016107	-0.001427	0.008876	0.432533	0.583251	-0.526767	0.441871
10613		9.623018	0.325807	-2.137552	0.024757	0.001173	0.010405	0.432484	0.583275	-0.526741	0.441919
10614		9.576097	0.346610	-2.080448	0.024467	0.002844	0.012621	0.432440	0.583286	-0.526714	0.441979
10615		9.601616	0.321357	-2.081484	0.019438	0.002636	0.017707	0.432393	0.583276	-0.526718	0.442033
10616		9.594648	0.335769	-2.051855	0.012829	-0.000918	0.015129	0.432368	0.583262	-0.526734	0.442058
10617		9.594621	0.333957	-2.052275	0.012046	-0.006957	0.017320	0.432318	0.583259	-0.526773	0.442063
10618		9.575703	0.289150	-2.114261	0.010534	-0.004455	0.019024	0.432283	0.583237	-0.526815	0.442078
10619		9.629084	0.344278	-2.093074	0.008503	-0.002214	0.014367	0.432263	0.583223	-0.526844	0.442082
10620		9.576181	0.335494	-2.081882	0.005516	-0.003377	0.018402	0.432243	0.583192	-0.526888	0.442088
10621		9.550832	0.356997	-2.080805	0.001560	0.000788	0.019082	0.432240	0.583144	-0.526940	0.442092
10622		9.550872	0.355289	-2.080912	-0.001256	-0.003011	0.016616	0.432244	0.583102	-0.526995	0.442078
10623		9.587036	0.289886	-2.057530	-0.008155	-0.004893	0.016251	0.432261	0.583053	-0.527072	0.442035
10624		9.555606	0.282089	-2.102501	0.006365	-0.009668	0.017473	0.432226	0.583039	-0.527128	0.442021
10625		9.593763	0.270428	-2.088842	0.011679	-0.011135	0.010174	0.432184	0.583063	-0.527155	0.441998
10626		9.593663	0.268639	-2.089531	0.016611	-0.002440	0.020959	0.432130	0.583047	-0.527183	0.442040
10627		9.626673	0.276471	-2.087303	0.012785	0.003973	0.020217	0.432100	0.583013	-0.527206	0.442086
10628		9.613879	0.260985	-2.102658	0.012626	0.007894	0.021010	0.432086	0.582962	-0.527223	0.442146
10629		9.600063	0.291336	-2.043028	0.014409	0.002443	0.022807	0.432041	0.582928	-0.527254	0.442197
10630		9.587211	0.275698	-2.058664	0.009392	0.003524	0.022184	0.432020	0.582879	-0.527289	0.442241
10631		9.607250	0.270246	-2.072324	0.005625	-0.002392	0.022705	0.431989	0.582838	-0.527349	0.442255
10632		9.575956	0.261980	-2.116654	0.011315	0.001595	0.016847	0.431969	0.582812	-0.527367	0.442287
10633		9.565291	0.300455	-2.141597	0.004935	-0.000013	0.022847	0.431945	0.582763	-0.527424	0.442306
10634		9.583748	0.291359	-2.113027	-0.007539	0.003812	0.020570	0.431977	0.582680	-0.527491	0.442304
10635		9.569881	0.322180	-2.053787	-0.004539	-0.002471	0.022882	0.431974	0.582616	-0.527575	0.442291
10636		9.569829	0.320363	-2.054316	-0.005034	-0.008905	0.017150	0.431975	0.582577	-0.527653	0.442249
10637		9.608932	0.262791	-2.115514	-0.000005	-0.008712	0.012063	0.431968	0.582565	-0.527707	0.442206
10638		9.563551	0.288234	-2.101264	0.007026	-0.004591	0.011005	0.431958	0.582559	-0.527730	0.442197
10639		9.574131	0.246370	-2.076994	0.008803	-0.010043	0.012804	0.431921	0.582568	-0.527770	0.442175
10640		9.620869	0.222264	-2.134708	0.010820	-0.004840	0.011120	0.431899	0.582569	-0.527786	0.442175
10641		9.600886	0.223936	-2.121285	0.022580	-0.000127	0.012902	0.431848	0.582584	-0.527774	0.442219
10642		9.568663	0.262102	-2.090606	0.020007	-0.000707	0.013304	0.431805	0.582591	-0.527767	0.442259
10643		9.583340	0.277441	-2.116745	0.012668	0.003014	0.015943	0.431783	0.582570	-0.527780	0.442293
10644		9.594872	0.285198	-2.058447	0.007252	0.004798	0.013240	0.431792	0.582537	-0.527790	0.442316
10645		9.598201	0.291696	-2.142238	0.004561	0.003243	0.009348	0.431809	0.582515	-0.527802	0.442315
10646		9.591330	0.306896	-2.112531	0.001439	-0.000150	0.014814	0.431817	0.582477	-0.527839	0.442313
10647		9.615019	0.278164	-2.071774	-0.004242	-0.002855	0.014961	0.431831	0.582435	-0.527899	0.442283
10648		9.600317	0.259598	-2.046109	0.001325	-0.008557	0.016878	0.431813	0.582410	-0.527960	0.442259
10649		9.614067	0.225143	-2.105939	-0.003154	-0.005929	0.016902	0.431811	0.582373	-0.528031	0.442227
10650		9.594061	0.227175	-2.092619	-0.013985	-0.002359	0.011494	0.431867	0.582314	-0.528098	0.442170
10651		9.580997	0.212683	-2.108787	-0.003439	-0.004252	0.019119	0.431865	0.582266	-0.528172	0.442147
10652		9.575626	0.231463	-2.121699	0.002408	-0.004201	0.012464	0.431866	0.582243	-0.528210	0.442129
10653		9.576385	0.280001	-2.089134	0.010530	-0.003163	0.013343	0.431841	0.582238	-0.528233	0.442134
10654		9.558054	0.285591	-2.117640	0.006586	0.001011	0.014019	0.431841	0.582209	-0.528256	0.442145
10655		9.596461	0.273846	-2.102636	0.001423	0.006017	0.014182	0.431863	0.582161	-0.528283	0.442155
10656		9.596598	0.272521	-2.102185	0.002926	0.003509	0.012480	0.431882	0.582123	-0.528302	0.442162
10657		9.613391	0.260347	-2.031625	0.011480	-0.001051	0.010356	0.431866	0.582123	-0.528310	0.442169
10658		9.581979	0.253198	-2.076141	0.014620	-0.003825	0.005526	0.431847	0.582147	-0.528297	0.442171
10659		9.568879	0.239076	-2.092376	0.009190	-0.003305	0.008541	0.431836	0.582152	-0.528309	0.442161
10660		9.608709	0.231588	-2.120164	0.004042	-0.004461	0.009340	0.431837	0.582143	-0.528333	0.442142
10661		9.616410	0.264210	-2.117136	0.007569	-0.001773	0.005950	0.431841	0.582148	-0.528338	0.442127
10662		9.591206	0.286876	-2.115903	0.004564	0.003247	0.009353	0.431863	0.582121	-0.528347	0.442130
10663		9.615759	0.308318	-2.041993	0.006868	-0.000660	0.011809	0.431857	0.582106	-0.528368	0.442129
10664		9.596659	0.264112	-2.102977	0.006571	0.007181	0.013385	0.431874	0.582065	-0.528376	0.442158
10665		9.578521	0.269639	-2.130652	0.014692	0.008217	0.014267	0.431864	0.582041	-0.528369	0.442209
10666		9.566530	0.304644	-2.113013	0.011983	0.005398	0.016095	0.431855	0.582007	-0.528377	0.442252
10667		9.584990	0.295849	-2.084289	0.010911	0.002311	0.014794	0.431839	0.581987	-0.528392	0.442276
10668		9.574558	0.334643	-2.109065	0.013201	0.004568	0.016612	0.431821	0.581959	-0.528399	0.442322
10669		9.625117	0.285931	-2.111057	0.004144	0.002688	0.013000	0.431830	0.581927	-0.528423	0.442326
10670		9.559246	0.264807	-2.114958	0.012001	0.006662	0.010376	0.431835	0.581908	-0.528410	0.442362
10671		9.610701	0.266283	-2.083984	0.028671	0.003131	0.009142	0.431784	0.581939	-0.528367	0.442424
10672		9.547229	0.298535	-2.097745	0.038701	-0.005204	0.011052	0.431679	0.582005	-0.528319	0.442496
10673		9.607879	0.336907	-2.106671	0.042374	-0.006437	0.006879	0.431568	0.582094	-0.528258	0.442560
10674		9.581721	0.308982	-2.138743	0.043718	0.001140	0.005326	0.431483	0.582167	-0.528172	0.442650
10675		9.592225	0.267259	-2.113851	0.036561	-0.003950	0.002097	0.431406	0.582250	-0.528105	0.442696
10676		9.615717	0.238864	-2.073439	0.028421	-0.006238	0.006938	0.431341	0.582302	-0.528073	0.442728
10677		9.629608	0.300610	-2.025536	0.022572	-0.006267	0.013595	0.431272	0.582330	-0.528076	0.442754
10678		9.609570	0.302395	-2.012546	0.004297	-0.007374	0.012870	0.431258	0.582319	-0.528117	0.442733
10679		9.591194	0.308373	-2.041337	-0.012631	-0.000911	0.010580	0.431312	0.582265	-0.528179	0.442678
10680		9.565057	0.280993	-2.073075	-0.022807	-0.002230	0.016468	0.431382	0.582173	-0.528282	0.442608
10681		9.617009	0.236729	-2.117669	-0.022644	-0.004897	0.009961	0.431455	0.582108	-0.528374	0.442514
10682		9.596948	0.239573	-2.104599	-0.018709	-0.009072	0.009298	0.431512	0.582059	-0.528460	0.442420
10683		9.573249	0.266218	-2.146188	-0.020490	-0.004876	0.013212	0.431571	0.581990	-0.528556	0.442338
10684		9.591482	0.258174	-2.118347	-0.013045	-0.007626	0.014879	0.431603	0.581934	-0.528645	0.442274
10685		9.609732	0.249934	-2.090465	-0.006005	-0.003521	0.013817	0.431623	0.581892	-0.528707	0.442235
10686		9.589763	0.251956	-2.077098	-0.003032	-0.003641	0.015500	0.431633	0.581851	-0.528763	0.442213
10687		9.563521	0.224200	-2.109195	0.001040	-0.005579	0.013402	0.431628	0.581831	-0.528813	0.442185
10688		9.616408	0.229237	-2.121217	-0.000060	-0.003759	0.017183	0.431625	0.581792	-0.528867	0.442174
10689		9.611172	0.248010	-2.133950	0.004827	0.000326	0.012872	0.431625	0.581768	-0.528894	0.442173
10690		9.621097	0.252424	-2.033994	-0.002895	-0.001397	0.014071	0.431644	0.581725	-0.528941	0.442154
10691		9.615967	0.271408	-2.046247	-0.008187	0.007537	0.015008	0.431696	0.581651	-0.528989	0.442145
10692		9.575219	0.226924	-2.051071	-0.011838	0.003875	0.014108	0.431755	0.581574	-0.529047	0.442117
10693		9.583116	0.259202	-2.047851	-0.009940	-0.005495	0.015137	0.431778	0.581525	-0.529127	0.442065
10694		9.629749	0.234752	-2.105133	-0.011837	-0.002284	0.014757	0.431821	0.581460	-0.529201	0.442020
10695		9.611441	0.240791	-2.133563	-0.012915	0.000790	0.012811	0.431874	0.581395	-0.529267	0.441973
10696		9.566459	0.266645	-2.118465	-0.008865	0.003757	0.015795	0.431922	0.581321	-0.529324	0.441955
10697		9.584866	0.258389	-2.089832	-0.012916	0.000792	0.012813	0.431975	0.581257	-0.529391	0.441909
10698		9.595365	0.216786	-2.064483	-0.011839	0.003881	0.014115	0.432035	0.581181	-0.529449	0.441881
10699		9.571914	0.243201	-2.105187	-0.001121	0.000567	0.009513	0.432061	0.581151	-0.529479	0.441858
10700		9.618084	0.265022	-2.087259	0.000893	-0.001657	0.014193	0.432070	0.581114	-0.529522	0.441847
10701		9.586682	0.257673	-2.131516	0.003608	0.001155	0.012362	0.432078	0.581086	-0.529549	0.441843
10702		9.593090	0.286278	-2.085824	-0.002477	0.005324	0.009785	0.432123	0.581040	-0.529569	0.441837
10703		9.590488	0.231910	-2.076087	-0.006387	0.004599	0.005370	0.432184	0.581000	-0.529591	0.441803
10704		9.588929	0.227543	-2.033816	-0.001661	-0.000975	0.008863	0.432216	0.580968	-0.529623	0.441775
10705		9.612097	0.230756	-2.131717	0.009037	0.000615	0.009347	0.432213	0.580961	-0.529630	0.441778
10706		9.559207	0.223398	-2.119906	0.009319	0.005094	0.006485	0.432233	0.580948	-0.529616	0.441793
10707		9.575109	0.289254	-2.113270	0.012147	-0.003429	0.010244	0.432209	0.580955	-0.529627	0.441794
10708		9.630538	0.220689	-2.103044	0.002413	0.003242	0.006118	0.432245	0.580931	-0.529632	0.441785
10709		9.606676	0.293518	-2.068654	0.003890	0.005636	0.009502	0.432269	0.580901	-0.529640	0.441790
10710		9.602335	0.235006	-2.017270	0.007815	-0.004710	0.009478	0.432262	0.580899	-0.529660	0.441777
10711		9.623799	0.234364	-2.073535	0.008634	-0.004849	0.007912	0.432250	0.580907	-0.529674	0.441760
10712		9.592342	0.227445	-2.117977	0.006063	0.000742	0.007666	0.432265	0.580893	-0.529680	0.441756
10713		9.572335	0.230009	-2.104753	0.008231	-0.010314	0.006477	0.432244	0.580917	-0.529703	0.441718
10714		9.584248	0.192169	-2.122088	0.007540	0.003136	0.011051	0.432251	0.580894	-0.529710	0.441734
10715		9.588993	0.217541	-2.034607	0.007862	-0.002210	-0.001984	0.432271	0.580920	-0.529692	0.441702
10716		9.620835	0.177059	-2.065510	0.020172	-0.002149	0.001100	0.432253	0.580961	-0.529652	0.441713
10717		9.636705	0.243252	-2.059236	0.029510	-0.001962	0.002503	0.432201	0.581023	-0.529598	0.441747
10718		9.597269	0.202822	-2.106994	0.037091	-0.002484	0.002741	0.432130	0.581097	-0.529527	0.441804
10719		9.553798	0.232545	-2.134679	0.033156	-0.004456	0.004060	0.432058	0.581168	-0.529474	0.441844
10720		9.601540	0.258033	-2.159212	0.027869	-0.001673	0.005644	0.432009	0.581213	-0.529431	0.441886
10721		9.613094	0.266614	-2.101289	0.013389	0.003158	0.004388	0.432012	0.581223	-0.529408	0.441897
10722		9.624691	0.275530	-2.043129	0.000658	0.002539	0.004950	0.432052	0.581201	-0.529413	0.441880
10723		9.578531	0.252426	-2.060937	0.000819	-0.000141	-0.001566	0.432097	0.581206	-0.529408	0.441837
10724		9.606351	0.282470	-2.071697	0.002568	-0.005589	0.000253	0.432123	0.581217	-0.529414	0.441789
10725		9.607865	0.286122	-2.114231	0.002711	-0.003351	-0.001181	0.432153	0.581232	-0.529412	0.441741
10726		9.589511	0.293087	-2.142848	0.004188	-0.000954	0.002202	0.432179	0.581236	-0.529406	0.441719
10727		9.614606	0.268944	-2.143989	0.007700	0.000471	0.004537	0.432191	0.581239	-0.529402	0.441708
10728		9.591580	0.264169	-2.045717	0.013371	0.008076	0.009470	0.432198	0.581222	-0.529379	0.441750
10729		9.532313	0.226932	-2.079274	0.010386	-0.004122	0.009092	0.432180	0.581230	-0.529392	0.441742
10730		9.549761	0.296357	-2.115573	0.016886	-0.007735	0.008032	0.432139	0.581261	-0.529389	0.441745
10731		9.591036	0.292268	-2.185910	0.024768	-0.008702	0.000322	0.432088	0.581334	-0.529353	0.441742
10732		9.594415	0.267805	-2.132104	0.017585	-0.008869	0.002169	0.432058	0.581381	-0.529338	0.441728
10733		9.645627	0.269681	-2.102436	0.020278	-0.007300	0.006071	0.432010	0.581425	-0.529326	0.441730
10734		9.649159	0.244864	-2.048020	0.011211	0.001901	0.006873	0.432015	0.581423	-0.529315	0.441742
10735		9.605830	0.274760	-2.075147	0.002813	0.002565	0.008201	0.432038	0.581401	-0.529329	0.441732
10736		9.592304	0.307299	-2.016275	-0.005315	-0.004616	0.007970	0.432070	0.581375	-0.529371	0.441684
10737		9.592595	0.260294	-2.091496	-0.013436	-0.005638	0.007082	0.432122	0.581339	-0.529435	0.441605
10738		9.592427	0.260043	-2.092296	-0.015598	-0.011818	0.004488	0.432174	0.581314	-0.529507	0.441501
10739		9.604155	0.223352	-2.110032	-0.014891	-0.006798	-0.002034	0.432248	0.581300	-0.529549	0.441395
10740		9.607230	0.230962	-2.194648	-0.009480	-0.002424	0.000032	0.432317	0.581279	-0.529575	0.441324
10741		9.555775	0.228349	-2.225431	0.010289	-0.003876	-0.000942	0.432324	0.581311	-0.529558	0.441296
10742		9.534052	0.227922	-2.170663	0.036824	-0.016784	-0.004534	0.432232	0.581437	-0.529495	0.441295
10743		9.591801	0.213342	-2.171453	0.055771	-0.018084	-0.003933	0.432078	0.581610	-0.529396	0.441337
10744		9.604616	0.225553	-2.157311	0.070934	-0.012957	-0.004104	0.431897	0.581801	-0.529249	0.441439
10745		9.597702	0.241106	-2.128742	0.080556	-0.002120	-0.006219	0.431719	0.581997	-0.529055	0.441587
10746		9.612024	0.303410	-2.080958	0.070256	-0.004392	-0.004605	0.431563	0.582168	-0.528890	0.441711
10747		9.557453	0.292891	-2.027509	0.047384	0.001089	-0.004550	0.431484	0.582280	-0.528769	0.441786
10748		9.590156	0.348959	-1.951112	0.027614	-0.003633	-0.002922	0.431451	0.582349	-0.528706	0.441802
10749		9.605123	0.318764	-2.052472	0.001890	-0.003206	0.000396	0.431480	0.582358	-0.528710	0.441756
10750		9.579960	0.342624	-2.051809	-0.018951	-0.004871	0.000059	0.431568	0.582325	-0.528759	0.441657
10751		9.585376	0.276235	-2.114020	-0.036139	-0.002867	0.000618	0.431707	0.582249	-0.528849	0.441514
10752		9.590455	0.256983	-2.101696	-0.041949	-0.006557	-0.003523	0.431867	0.582175	-0.528945	0.441340
10753		9.603762	0.224468	-2.161224	-0.040756	-0.008614	0.002739	0.431999	0.582097	-0.529063	0.441171
10754		9.575722	0.194864	-2.151282	-0.027093	-0.007124	0.004917	0.432096	0.582034	-0.529154	0.441051
10755		9.628480	0.201440	-2.163825	-0.013539	-0.011562	-0.002281	0.432154	0.582035	-0.529202	0.440934
10756		9.609945	0.208535	-2.193015	0.000931	-0.005298	0.003397	0.432179	0.582034	-0.529221	0.440889
10757		9.608351	0.204440	-2.151203	0.012706	-0.000607	0.005176	0.432172	0.582048	-0.529210	0.440889
10758		9.597631	0.290801	-2.102247	0.018120	-0.007307	0.002829	0.432142	0.582092	-0.529191	0.440884
10759		9.609480	0.252966	-2.119432	0.020008	0.000566	0.007628	0.432112	0.582114	-0.529168	0.440912
10760		9.571033	0.309141	-2.059270	0.011356	0.004148	0.005431	0.432124	0.582111	-0.529148	0.440929
10761		9.565992	0.328739	-2.071373	0.001888	0.007873	0.004798	0.432172	0.582084	-0.529142	0.440925
10762		9.566034	0.328533	-2.071211	-0.002440	-0.004494	-0.000373	0.432216	0.582084	-0.529155	0.440866
10763		9.580591	0.345425	-2.098269	-0.002848	-0.009962	-0.001792	0.432247	0.582103	-0.529177	0.440783
10764		9.570055	0.386386	-2.124275	-0.016503	-0.005291	-0.004630	0.432340	0.582084	-0.529211	0.440677
10765		9.555136	0.370325	-2.098740	-0.023835	-0.013848	-0.000676	0.432418	0.582064	-0.529292	0.440530
10766		9.565197	0.330577	-2.074748	-0.027349	-0.015275	-0.003005	0.432513	0.582039	-0.529376	0.440367
10767		9.559862	0.305188	-2.163662	-0.028974	-0.019907	-0.004941	0.432600	0.582032	-0.529469	0.440180
10768		9.614433	0.285256	-2.080847	-0.035214	-0.030290	-0.004761	0.432683	0.582029	-0.529596	0.439950
10769		9.627231	0.253336	-2.142336	-0.030185	-0.023986	-0.010522	0.432775	0.582043	-0.529684	0.439735
10770		9.603127	0.281891	-2.185450	-0.015577	-0.021650	-0.005629	0.432825	0.582067	-0.529745	0.439581
10771		9.571005	0.276720	-2.231755	-0.004875	-0.024969	-0.010226	0.432842	0.582138	-0.529778	0.439430
10772		9.568725	0.320488	-2.117649	-0.004084	-0.032498	-0.005390	0.432826	0.582215	-0.529833	0.439277
10773		9.574493	0.351137	-2.075750	-0.035369	-0.038658	-0.002625	0.432878	0.582230	-0.529986	0.439022
10774		9.638399	0.368261	-2.033160	-0.055540	-0.036516	-0.003696	0.433000	0.582194	-0.530174	0.438722
10775		9.567770	0.374222	-2.094731	-0.056753	-0.029521	-0.004863	0.433142	0.582147	-0.530349	0.438434
10776		9.573777	0.359195	-2.126866	-0.064752	-0.029535	-0.001418	0.433302	0.582069	-0.530549	0.438136
10777		9.551918	0.314274	-2.148496	-0.063671	-0.031344	-0.005186	0.433459	0.582012	-0.530742	0.437823
10778		9.575041	0.288382	-2.110031	-0.064624	-0.022368	0.002252	0.433632	0.581906	-0.530940	0.437552
10779		9.614335	0.282680	-2.139265	-0.060286	-0.014927	0.002360	0.433805	0.581799	-0.531113	0.437313
10780		9.599502	0.266681	-2.113882	-0.055544	-0.008182	0.004550	0.433979	0.581679	-0.531264	0.437116
10781		9.555611	0.170432	-2.110228	-0.052561	-0.002149	0.005578	0.434155	0.581552	-0.531403	0.436941
10782		9.604592	0.201070	-2.176879	-0.038621	-0.003621	0.011221	0.434279	0.581440	-0.531528	0.436815
10783		9.634873	0.156730	-2.165927	-0.031712	-0.001775	0.011567	0.434382	0.581343	-0.531637	0.436709
10784		9.576772	0.169921	-2.166404	-0.018977	0.003728	0.016039	0.434454	0.581249	-0.531714	0.436668
10785		9.610015	0.178389	-2.163782	-0.012198	0.009485	0.017166	0.434518	0.581155	-0.531773	0.436659
10786		9.563926	0.200114	-2.105824	-0.015055	0.004447	0.020446	0.434571	0.581056	-0.531854	0.436639
10787		9.597174	0.208339	-2.103209	-0.010167	0.008514	0.016112	0.434629	0.580971	-0.531907	0.436630
10788		9.606846	0.244098	-2.140879	-0.006775	0.013841	0.019220	0.434688	0.580869	-0.531948	0.436656
10789		9.580716	0.262217	-2.096252	-0.004886	0.010632	0.019597	0.434728	0.580783	-0.531995	0.436674
10790		9.580998	0.260494	-2.095180	0.001080	0.011626	0.017210	0.434762	0.580709	-0.532017	0.436711
10791		9.594565	0.271836	-2.078100	0.011926	0.015430	0.016224	0.434774	0.580658	-0.532007	0.436780
10792		9.621392	0.250114	-2.120002	0.012469	0.016972	0.016875	0.434789	0.580599	-0.531990	0.436863
10793		9.621891	0.248026	-2.117985	0.020339	0.025808	0.019307	0.434797	0.580535	-0.531948	0.436992
10794		9.551142	0.292681	-2.057062	0.013555	0.024962	0.023268	0.434818	0.580441	-0.531935	0.437111
10795		9.578151	0.270485	-2.098252	-0.004062	0.021566	0.022472	0.434877	0.580324	-0.531966	0.437170
10796		9.593432	0.285368	-2.122066	-0.007296	0.029534	0.022372	0.434971	0.580177	-0.531986	0.437248
10797		9.580862	0.316541	-2.060050	-0.021794	0.028248	0.021816	0.435100	0.580008	-0.532040	0.437279
10798		9.586605	0.294512	-2.045084	-0.028997	0.021948	0.024338	0.435231	0.579825	-0.532130	0.437281
10799		9.600317	0.259611	-2.102431	-0.029435	0.015244	0.028642	0.435333	0.579650	-0.532248	0.437268
10800		9.567628	0.247894	-2.102884	-0.028076	0.016650	0.027728	0.435436	0.579477	-0.532352	0.437268
10801		9.584236	0.266965	-2.169693	-0.030508	0.013425	0.021611	0.435552	0.579322	-0.532456	0.437231
10802		9.579408	0.285813	-2.181029	-0.019006	0.008683	0.021142	0.435627	0.579200	-0.532540	0.437216
10803		9.589882	0.289470	-2.080122	-0.015612	0.009106	0.019167	0.435694	0.579095	-0.532612	0.437200
10804		9.573308	0.299183	-2.149496	-0.005304	0.011352	0.017543	0.435745	0.579007	-0.532650	0.437220
10805		9.602156	0.249534	-2.095242	0.007708	0.010239	0.014720	0.435759	0.578962	-0.532655	0.437260
10806		9.567252	0.266431	-2.192944	0.015837	0.011227	0.015587	0.435754	0.578926	-0.532640	0.437331
10807		9.560898	0.281099	-2.162350	0.025056	0.010391	0.012660	0.435724	0.578924	-0.532600	0.437412
10808		9.596374	0.215041	-2.137503	0.027532	0.016124	0.007309	0.435717	0.578923	-0.532526	0.437510
10809		9.578277	0.266859	-2.089745	0.045922	0.007045	0.007843	0.435630	0.578987	-0.532433	0.437625
10810		9.583519	0.244849	-2.076779	0.052561	0.005652	0.005331	0.435531	0.579069	-0.532320	0.437752
10811		9.631535	0.269702	-2.100556	0.057167	0.005242	0.003879	0.435415	0.579173	-0.532193	0.437884
10812		9.608257	0.295925	-2.140959	0.044576	0.006914	0.003041	0.435346	0.579242	-0.532087	0.437990
10813		9.555450	0.288612	-2.128670	0.041328	0.008737	0.003587	0.435286	0.579304	-0.531988	0.438090
10814		9.613717	0.273131	-2.127086	0.041326	0.008742	0.003593	0.435228	0.579361	-0.531885	0.438195
10815		9.619033	0.251569	-2.113657	0.045808	0.012251	0.002927	0.435166	0.579426	-0.531767	0.438316
10816		9.624274	0.230134	-2.100522	0.050119	0.002453	-0.000744	0.435076	0.579529	-0.531645	0.438416
10817		9.586162	0.239592	-2.114927	0.047388	0.004581	0.006193	0.434982	0.579606	-0.531549	0.438525
10818		9.592873	0.221371	-2.144333	0.051300	0.000393	0.005531	0.434870	0.579699	-0.531448	0.438635
10819		9.581155	0.256877	-2.127517	0.051175	-0.000598	0.001233	0.434762	0.579809	-0.531339	0.438728
10820		9.594458	0.268724	-2.111570	0.055531	0.006838	0.001351	0.434665	0.579907	-0.531203	0.438860
10821		9.594673	0.267216	-2.110784	0.054311	0.012606	0.005928	0.434571	0.579982	-0.531073	0.439010
10822		9.606610	0.275099	-2.051830	0.064884	0.013181	0.002117	0.434462	0.580084	-0.530906	0.439186
10823		9.583509	0.300865	-2.091797	0.065275	0.012506	0.004218	0.434341	0.580188	-0.530747	0.439361
10824		9.618376	0.312265	-2.131320	0.068764	0.002856	0.002148	0.434188	0.580327	-0.530586	0.439521
10825		9.550635	0.287934	-2.093235	0.061577	0.002720	0.004009	0.434053	0.580446	-0.530455	0.439657
10826		9.616891	0.305350	-2.089247	0.053698	-0.001196	0.006658	0.433927	0.580545	-0.530355	0.439771
10827		9.593541	0.331291	-2.130474	0.037754	0.001250	0.001997	0.433861	0.580619	-0.530275	0.439835
10828		9.586960	0.347153	-2.100849	0.034659	0.005298	0.001084	0.433819	0.580676	-0.530187	0.439908
10829		9.547288	0.353525	-2.073155	0.030721	0.003338	0.002406	0.433777	0.580728	-0.530119	0.439961
10830		9.585606	0.295326	-2.132866	0.038173	0.001796	-0.001647	0.433724	0.580806	-0.530025	0.440025
10831		9.585665	0.294671	-2.132692	0.037503	0.004179	-0.001519	0.433674	0.580881	-0.529929	0.440090
10832		9.600533	0.310805	-2.158946	0.040624	0.001358	-0.006340	0.433624	0.580977	-0.529816	0.440149
10833		9.579173	0.310651	-2.102651	0.029133	0.011022	-0.000869	0.433614	0.581017	-0.529726	0.440213
10834		9.584350	0.289932	-2.089488	0.024083	-0.000189	-0.000165	0.433591	0.581067	-0.529669	0.440239
10835		9.615846	0.295801	-2.045474	0.023144	-0.001054	-0.002900	0.433573	0.581126	-0.529612	0.440248
10836		9.597522	0.302661	-2.074090	0.023962	-0.001202	-0.004466	0.433560	0.581186	-0.529548	0.440260
10837		9.564366	0.292965	-2.076330	0.017995	-0.002185	-0.002103	0.433551	0.581234	-0.529507	0.440253
10838		9.615764	0.248344	-2.120862	0.026905	-0.007467	-0.002091	0.433507	0.581309	-0.529456	0.440259
10839		9.597383	0.254956	-2.149744	0.032076	-0.000175	-0.003561	0.433467	0.581387	-0.529375	0.440292
10840		9.564245	0.245008	-2.151912	0.037891	-0.001415	-0.004473	0.433411	0.581480	-0.529278	0.440341
10841		9.607327	0.260825	-2.050336	0.042345	-0.004050	-0.004460	0.433333	0.581593	-0.529179	0.440388
10842		9.595648	0.250407	-2.108410	0.041005	0.000711	-0.004216	0.433276	0.581684	-0.529075	0.440449
10843		9.565551	0.293822	-2.120656	0.041374	-0.006117	-0.001435	0.433189	0.581791	-0.528991	0.440494
10844		9.588834	0.266032	-2.079916	0.044638	-0.001767	-0.002630	0.433109	0.581895	-0.528886	0.440562
10845		9.601994	0.278714	-2.064627	0.037734	-0.003620	-0.003002	0.433042	0.581993	-0.528801	0.440601
10846		9.616721	0.294683	-2.091560	0.030557	-0.003775	-0.001166	0.432993	0.582067	-0.528734	0.440631
10847		9.603465	0.280868	-2.107428	0.022043	0.000824	0.000900	0.432973	0.582110	-0.528686	0.440651
10848		9.601914	0.276897	-2.065244	0.033124	0.001751	0.003504	0.432921	0.582165	-0.528617	0.440713
10849		9.587142	0.259671	-2.038678	0.031790	0.001557	-0.001321	0.432881	0.582233	-0.528539	0.440755
10850		9.568447	0.342658	-2.132134	0.032578	0.000208	0.002868	0.432828	0.582292	-0.528472	0.440810
10851		9.591779	0.315057	-2.091126	0.032186	-0.004067	-0.004281	0.432778	0.582382	-0.528396	0.440831
10852		9.598320	0.297705	-2.121020	0.024862	-0.006450	-0.000999	0.432740	0.582447	-0.528350	0.440837
10853		9.578345	0.300941	-2.107828	0.027309	-0.001951	-0.000636	0.432701	0.582512	-0.528292	0.440859
10854		9.563497	0.284000	-2.081571	0.020134	-0.002110	0.001193	0.432680	0.582555	-0.528251	0.440873
10855		9.631290	0.305740	-2.119920	0.024610	0.001410	0.000518	0.432656	0.582603	-0.528195	0.440900
10856		9.604800	0.325777	-2.076842	0.028120	0.002859	0.002860	0.432623	0.582645	-0.528133	0.440951
10857		9.563628	0.281821	-2.081266	0.014316	0.004087	0.007155	0.432619	0.582648	-0.528114	0.440973
10858		9.570346	0.263779	-2.110397	0.018224	-0.000096	0.006536	0.432597	0.582667	-0.528090	0.440998
10859		9.616693	0.285361	-2.092983	0.021980	-0.001544	0.012424	0.432545	0.582686	-0.528082	0.441035
10860		9.581609	0.347875	-2.118122	0.014412	-0.001031	0.012156	0.432520	0.582683	-0.528086	0.441058
10861		9.568425	0.333071	-2.133753	0.006570	0.001187	0.014094	0.432515	0.582658	-0.528111	0.441066
10862		9.580188	0.341985	-2.075696	-0.000304	0.005474	0.013013	0.432544	0.582609	-0.528134	0.441074
10863		9.577208	0.287307	-2.065120	-0.002604	0.003199	0.011202	0.432578	0.582566	-0.528167	0.441059
10864		9.582025	0.342855	-2.117056	-0.004632	0.004180	0.012238	0.432621	0.582509	-0.528204	0.441047
10865		9.620260	0.331607	-2.102075	-0.002996	-0.001088	0.004054	0.432661	0.582493	-0.528226	0.441003
10866		9.578978	0.288000	-2.106757	-0.001119	0.000668	0.009526	0.432692	0.582458	-0.528255	0.440984
10867		9.585610	0.270437	-2.136147	-0.005295	-0.003363	0.002242	0.432737	0.582447	-0.528281	0.440923
10868		9.628797	0.239563	-2.108656	0.004178	-0.000930	0.002229	0.432765	0.582447	-0.528280	0.440898
10869		9.590649	0.249563	-2.123426	0.007416	0.002223	0.006777	0.432777	0.582439	-0.528279	0.440896
10870		9.589056	0.245744	-2.081388	0.008205	-0.004083	0.005912	0.432777	0.582446	-0.528286	0.440881
10871		9.602299	0.210547	-2.140200	0.008053	-0.001344	0.012421	0.432765	0.582433	-0.528308	0.440882
10872		9.600699	0.206232	-2.098232	0.013471	-0.001910	0.009426	0.432746	0.582438	-0.528307	0.440895
10873		9.565694	0.269190	-2.123280	0.011593	0.001295	0.009009	0.432739	0.582437	-0.528306	0.440906
10874		9.578972	0.281206	-2.107703	0.007235	-0.001186	0.013988	0.432729	0.582414	-0.528332	0.440913
10875		9.578966	0.280158	-2.107871	0.008354	-0.001859	0.004461	0.432734	0.582424	-0.528331	0.440897
10876		9.607042	0.309058	-2.118967	0.011865	-0.000410	0.006804	0.432730	0.582428	-0.528324	0.440904
10877		9.613728	0.338616	-2.073945	0.006749	0.004604	0.006890	0.432751	0.582413	-0.528321	0.440908
10878		9.585770	0.308197	-2.062498	0.008111	0.006000	0.005967	0.432774	0.582399	-0.528304	0.440923
10879		9.590884	0.287256	-2.049361	0.004691	-0.000565	0.008629	0.432783	0.582387	-0.528320	0.440910
10880		9.572584	0.293018	-2.078065	0.005751	-0.003613	0.010614	0.432778	0.582376	-0.528344	0.440901
10881		9.594046	0.291232	-2.134046	-0.003692	0.000107	0.009922	0.432810	0.582341	-0.528382	0.440871
10882		9.592443	0.287215	-2.092089	-0.003996	-0.004336	0.012832	0.432826	0.582305	-0.528435	0.440838
10883		9.599040	0.269290	-2.121558	-0.008414	-0.000513	0.007050	0.432876	0.582268	-0.528477	0.440787
10884		9.585779	0.255236	-2.137262	0.003329	-0.001960	0.009554	0.432888	0.582249	-0.528501	0.440772
10885		9.610696	0.277739	-2.064111	0.008868	-0.001494	0.010862	0.432877	0.582243	-0.528517	0.440772
10886		9.597437	0.263248	-2.079852	0.005084	-0.001235	0.010726	0.432881	0.582224	-0.528539	0.440767
10887		9.580838	0.319495	-2.076279	-0.000029	0.003781	0.010812	0.432910	0.582186	-0.528564	0.440759
10888		9.612466	0.277407	-2.105882	-0.002057	0.004764	0.011848	0.432946	0.582136	-0.528591	0.440757
10889		9.614187	0.279439	-2.147583	-0.007596	0.004300	0.010541	0.432998	0.582082	-0.528631	0.440730
10890		9.549700	0.310278	-2.118921	-0.015010	0.007042	0.008814	0.433085	0.582005	-0.528674	0.440694
10891		9.568093	0.302552	-2.090031	-0.013320	0.000430	0.016447	0.433130	0.581931	-0.528752	0.440653
10892		9.584738	0.244059	-2.093563	-0.003847	-0.002110	0.011381	0.433156	0.581894	-0.528797	0.440624
10893		9.612819	0.272635	-2.104891	0.002628	-0.005733	0.010370	0.433153	0.581885	-0.528835	0.440594
10894		9.574630	0.282237	-2.120047	0.008473	-0.000827	0.008768	0.433152	0.581878	-0.528840	0.440596
10895		9.563002	0.318676	-2.103905	0.000632	-0.003563	0.005648	0.433172	0.581872	-0.528864	0.440557
10896		9.572902	0.230248	-2.152441	-0.001667	-0.000871	0.008891	0.433200	0.581842	-0.528894	0.440532
10897		9.601048	0.259038	-2.163482	0.005507	-0.000722	0.007067	0.433210	0.581836	-0.528905	0.440517
10898		9.592972	0.272328	-2.091653	0.007998	0.009925	0.006723	0.433244	0.581809	-0.528885	0.440544
10899		9.586507	0.288370	-2.061941	0.002237	-0.000093	0.013332	0.433250	0.581778	-0.528920	0.440536
10900		9.578199	0.253721	-2.064920	0.008981	-0.005426	0.010115	0.433234	0.581779	-0.528940	0.440527
10901		9.607919	0.285041	-2.118357	0.010620	-0.000772	0.012039	0.433217	0.581772	-0.528954	0.440536
10902		9.576492	0.324889	-2.088422	0.003871	-0.000406	0.010201	0.433227	0.581751	-0.528974	0.440530
10903		9.561625	0.307659	-2.061946	-0.011415	-0.001579	0.011112	0.433273	0.581700	-0.529036	0.440477
10904		9.576482	0.323074	-2.088753	-0.006969	-0.004219	0.011138	0.433303	0.581661	-0.529092	0.440433
10905		9.566490	0.285933	-2.049844	-0.013601	-0.007781	0.008548	0.433346	0.581625	-0.529164	0.440350
10906		9.568000	0.288286	-2.092474	-0.019136	-0.003271	0.012299	0.433410	0.581554	-0.529248	0.440280
10907		9.561231	0.257178	-2.137666	-0.012509	-0.004677	0.009832	0.433455	0.581511	-0.529316	0.440212
10908		9.592650	0.262843	-2.094340	-0.011339	-0.011655	0.011066	0.433480	0.581477	-0.529398	0.440133
10909		9.584171	0.228456	-2.097915	-0.003341	-0.006702	0.012731	0.433486	0.581451	-0.529458	0.440089
10910		9.593988	0.263963	-2.137851	-0.009936	-0.004110	0.009440	0.433529	0.581408	-0.529516	0.440034
10911		9.592336	0.260096	-2.096124	0.001414	-0.004903	0.009844	0.433533	0.581396	-0.529553	0.440001
10912		9.585752	0.276168	-2.067114	-0.003301	-0.000551	0.012031	0.433560	0.581354	-0.529596	0.439979
10913		9.613778	0.257489	-2.152151	-0.004478	0.001461	0.005739	0.433607	0.581324	-0.529621	0.439942
10914		9.600682	0.290990	-2.093661	0.007925	-0.002384	0.008128	0.433605	0.581322	-0.529629	0.439937
10915		9.600629	0.290155	-2.094019	0.005621	-0.004655	0.006315	0.433606	0.581328	-0.529645	0.439909
10916		9.598802	0.238883	-2.126271	-0.001667	-0.000866	0.008897	0.433635	0.581297	-0.529676	0.439883
10917		9.592309	0.255173	-2.096852	-0.002990	0.003892	0.009121	0.433676	0.581257	-0.529703	0.439864
10918		9.600718	0.287776	-2.093940	-0.010051	-0.000175	0.010196	0.433727	0.581205	-0.529754	0.439822
10919		9.595739	0.230578	-2.041780	-0.010330	-0.003434	0.007346	0.433774	0.581169	-0.529806	0.439758
10920		9.578900	0.240097	-2.113105	-0.012677	-0.011854	0.006234	0.433813	0.581146	-0.529878	0.439665
10921		9.605196	0.218655	-2.156545	0.005663	0.001493	0.005613	0.433831	0.581139	-0.529879	0.439654
10922		9.593678	0.255272	-2.140297	0.016185	-0.004115	0.002521	0.433814	0.581174	-0.529856	0.439653
10923		9.598582	0.234374	-2.127765	0.015099	-0.002247	0.006299	0.433794	0.581195	-0.529846	0.439657
10924		9.592058	0.250241	-2.098592	0.017527	0.001065	0.012421	0.433763	0.581195	-0.529838	0.439696
10925		9.574117	0.303055	-2.052774	0.016865	0.003445	0.012534	0.433738	0.581191	-0.529831	0.439735
10926		9.560883	0.288299	-2.068178	0.013743	0.001333	0.012289	0.433719	0.581183	-0.529831	0.439765
10927		9.594089	0.296226	-2.066318	0.011829	-0.001607	0.012575	0.433695	0.581179	-0.529846	0.439775
10928		9.609059	0.311210	-2.092746	-0.002048	0.004780	0.011862	0.433732	0.581129	-0.529873	0.439773
10929		9.602302	0.279705	-2.137558	-0.004008	-0.004310	0.012851	0.433746	0.581096	-0.529930	0.439734
10930		9.584306	0.333180	-2.092080	-0.011259	0.000664	0.009668	0.433804	0.581039	-0.529980	0.439691
10931		9.589233	0.312304	-2.079382	-0.018480	-0.005619	0.012203	0.433858	0.580979	-0.530070	0.439609
10932		9.554153	0.251888	-2.113480	-0.015982	0.000052	0.006796	0.433936	0.580919	-0.530126	0.439544
10933		9.603716	0.203495	-2.115164	-0.004366	-0.002461	0.004989	0.433974	0.580901	-0.530156	0.439494
10934		9.613668	0.239529	-2.154716	0.002149	0.000051	0.003271	0.434007	0.580892	-0.530160	0.439470
10935		9.607217	0.256235	-2.125212	0.007187	0.005103	0.003232	0.434036	0.580886	-0.530143	0.439468
10936		9.569146	0.266545	-2.139857	0.011739	-0.001474	0.002502	0.434038	0.580905	-0.530125	0.439463
10937		9.569106	0.265864	-2.140121	0.017121	-0.003240	0.005266	0.434012	0.580935	-0.530110	0.439467
10938		9.575608	0.247874	-2.169531	0.013228	0.000959	0.005885	0.434009	0.580941	-0.530095	0.439480
10939		9.559069	0.228154	-2.101102	0.025256	-0.006017	-0.004647	0.433976	0.581021	-0.530038	0.439476
10940		9.583729	0.203857	-2.102465	0.039726	-0.004705	-0.003993	0.433905	0.581124	-0.529946	0.439520
10941		9.586979	0.256706	-2.113722	0.062638	-0.014158	-0.004674	0.433743	0.581305	-0.529822	0.439590
10942		9.595098	0.289142	-2.112455	0.063731	-0.011044	-0.003380	0.433587	0.581473	-0.529693	0.439678
10943		9.549928	0.268475	-2.173124	0.048333	-0.008261	-0.001709	0.433475	0.581601	-0.529597	0.439734
10944		9.579440	0.223713	-2.161960	0.054828	-0.010714	-0.008473	0.433355	0.581763	-0.529471	0.439791
10945		9.630694	0.225597	-2.132633	0.054682	-0.007945	-0.001951	0.433226	0.581905	-0.529360	0.439864
10946		9.601192	0.316481	-2.071562	0.044166	-0.002330	0.001126	0.433137	0.581998	-0.529269	0.439937
10947		9.569444	0.308845	-2.116271	0.045325	-0.009297	0.002384	0.433021	0.582112	-0.529194	0.439990
10948		9.544098	0.283965	-2.190526	0.037213	-0.010319	0.001473	0.432930	0.582208	-0.529135	0.440023
10949		9.562175	0.276306	-2.163107	0.033430	-0.010053	0.001338	0.432848	0.582300	-0.529086	0.440041
10950		9.597119	0.335646	-2.130323	0.033084	-0.003242	-0.001482	0.432794	0.582379	-0.529013	0.440079
10951		9.584105	0.369641	-2.072254	0.020659	-0.000578	0.001872	0.432773	0.582420	-0.528974	0.440093
10952		9.562344	0.322271	-2.090438	0.019294	-0.001966	0.002802	0.432753	0.582453	-0.528943	0.440106
10953		9.605307	0.291038	-2.063253	0.013976	-0.010293	0.000012	0.432730	0.582506	-0.528934	0.440069
10954		9.621527	0.309407	-2.133036	0.005725	-0.008554	0.005603	0.432725	0.582518	-0.528954	0.440033
10955		9.561813	0.320717	-2.093104	-0.001883	-0.014177	0.006049	0.432724	0.582529	-0.529007	0.439957
10956		9.612745	0.274866	-2.137396	-0.012344	-0.002428	0.008381	0.432780	0.582481	-0.529063	0.439898
10957		9.572725	0.234123	-2.183737	0.005947	0.004789	0.008457	0.432799	0.582460	-0.529065	0.439903
10958		9.554969	0.287835	-2.137915	0.003923	0.005778	0.009490	0.432828	0.582424	-0.529073	0.439913
10959		9.559975	0.266860	-2.124769	0.001568	-0.002646	0.008407	0.432841	0.582411	-0.529100	0.439885
10960		9.628184	0.335428	-2.090108	0.003543	-0.009779	0.008101	0.432834	0.582415	-0.529135	0.439845
10961		9.569653	0.300894	-2.165885	0.013536	-0.006967	0.014496	0.432787	0.582422	-0.529163	0.439848
10962		9.596269	0.325771	-2.135679	0.004187	-0.008328	0.018816	0.432757	0.582397	-0.529225	0.439837
10963		9.567892	0.295053	-2.125241	-0.003469	-0.007701	0.008460	0.432771	0.582384	-0.529275	0.439781
10964		9.594511	0.321050	-2.094924	-0.005884	-0.006050	0.007391	0.432802	0.582360	-0.529321	0.439726
10965		9.571153	0.347321	-2.136978	-0.012237	-0.006350	0.007647	0.432846	0.582327	-0.529385	0.439649
10966		9.556161	0.330569	-2.110902	-0.001712	-0.006973	0.009633	0.432856	0.582310	-0.529429	0.439608
10967		9.632252	0.308499	-2.082200	-0.005513	-0.011695	0.004449	0.432875	0.582312	-0.529480	0.439526
10968		9.615259	0.317328	-2.153745	-0.012268	-0.007506	0.013422	0.432906	0.582263	-0.529560	0.439464
10969		9.555187	0.280445	-2.187120	-0.010088	-0.006282	0.010924	0.432937	0.582226	-0.529629	0.439400
10970		9.561985	0.310225	-2.143278	-0.025684	-0.011865	0.014769	0.432993	0.582152	-0.529755	0.439291
10971		9.559813	0.258481	-2.175713	-0.017129	-0.005358	0.017060	0.433033	0.582081	-0.529855	0.439224
10972		9.560264	0.305141	-2.102491	-0.014451	-0.008724	0.015925	0.433063	0.582020	-0.529954	0.439155
10973		9.603221	0.273257	-2.075355	-0.023061	-0.005153	0.013654	0.433128	0.581945	-0.530057	0.439066
10974		9.593325	0.312498	-2.101635	-0.013583	-0.002744	0.013635	0.433174	0.581883	-0.530130	0.439016
10975		9.632945	0.303656	-2.129128	-0.013817	0.000132	0.010069	0.433234	0.581825	-0.530192	0.438959
10976		9.575086	0.317468	-2.129991	-0.013952	0.002903	0.016584	0.433288	0.581743	-0.530262	0.438931
10977		9.586493	0.278976	-2.145992	-0.012874	0.001023	0.012811	0.433341	0.581678	-0.530327	0.438885
10978		9.581436	0.221743	-2.093511	-0.014137	-0.004291	0.013001	0.433384	0.581621	-0.530401	0.438828
10979		9.581383	0.220447	-2.093892	-0.002667	-0.004040	0.017718	0.433384	0.581578	-0.530468	0.438805
10980		9.615990	0.230977	-2.134823	-0.006345	-0.007700	0.016842	0.433388	0.581534	-0.530545	0.438765
10981		9.611015	0.249475	-2.148264	-0.002115	-0.002487	0.018358	0.433389	0.581487	-0.530610	0.438748
10982		9.622351	0.210252	-2.164496	-0.005055	0.002600	0.021707	0.433404	0.581412	-0.530675	0.438754
10983		9.614645	0.222481	-2.092647	-0.007602	0.007027	0.027159	0.433424	0.581309	-0.530758	0.438771
10984		9.577388	0.278725	-2.032880	-0.017899	0.004798	0.028753	0.433468	0.581180	-0.530871	0.438762
10985		9.579047	0.279297	-2.074549	-0.023440	0.004350	0.027450	0.433526	0.581046	-0.530996	0.438729
10986		9.584069	0.257097	-2.061220	-0.019399	0.002365	0.025381	0.433575	0.580929	-0.531106	0.438703
10987		9.565803	0.262057	-2.089732	-0.020406	-0.004662	0.023362	0.433611	0.580834	-0.531231	0.438643
10988		9.579996	0.228678	-2.190627	-0.020244	-0.002446	0.021901	0.433658	0.580734	-0.531344	0.438592
10989		9.584903	0.206863	-2.177691	-0.020344	0.001486	0.022648	0.433711	0.580626	-0.531454	0.438549
10990		9.588404	0.182082	-2.122178	-0.008123	0.006643	0.020764	0.433750	0.580535	-0.531517	0.438555
10991		9.602036	0.193246	-2.105977	0.010128	0.007651	0.021543	0.433734	0.580483	-0.531542	0.438608
10992		9.635468	0.199983	-2.103503	0.014298	0.006715	0.023783	0.433701	0.580434	-0.531565	0.438678
10993		9.592662	0.228290	-2.130893	0.020977	0.000192	0.026345	0.433624	0.580411	-0.531596	0.438748
10994		9.607838	0.241388	-2.156859	0.019643	0.015027	0.026586	0.433593	0.580345	-0.531599	0.438861
10995		9.552579	0.303773	-2.125023	0.013736	0.009004	0.033991	0.433542	0.580266	-0.531650	0.438954
10996		9.568622	0.364257	-2.076870	0.003210	0.009668	0.032016	0.433530	0.580164	-0.531715	0.439022
10997		9.568970	0.361278	-2.075789	-0.001611	0.012990	0.029884	0.433543	0.580053	-0.531780	0.439077
10998		9.562171	0.328195	-2.119477	-0.006241	0.008450	0.026261	0.433566	0.579950	-0.531850	0.439105
10999		9.568711	0.308379	-2.148141	-0.000773	0.002752	0.028293	0.433554	0.579868	-0.531930	0.439129
11000		9.566446	0.255238	-2.179952	0.004178	-0.003343	0.023904	0.433525	0.579817	-0.531998	0.439143
11001		9.588529	0.299366	-2.162416	0.015223	-0.007447	0.021464	0.433456	0.579811	-0.532044	0.439164
11002		9.573562	0.280678	-2.135982	0.014514	0.003857	0.027380	0.433407	0.579758	-0.532082	0.439235
11003		9.596687	0.250998	-2.094519	0.010143	-0.002403	0.021544	0.433365	0.579730	-0.532128	0.439258
11004		9.596736	0.248516	-2.094590	0.019369	0.001692	0.023739	0.433308	0.579700	-0.532153	0.439325
11005		9.567527	0.290038	-2.106598	0.020868	0.004137	0.027127	0.433239	0.579666	-0.532177	0.439407
11006		9.607236	0.278797	-2.133768	0.022330	0.001589	0.025454	0.433166	0.579641	-0.532197	0.439488
11007		9.623184	0.218192	-2.136837	0.022069	0.003314	0.027669	0.433091	0.579610	-0.532222	0.439572
11008		9.647164	0.264278	-2.160338	0.029058	0.011280	0.027330	0.433020	0.579574	-0.532213	0.439702
11009		9.586558	0.270764	-2.076181	0.028500	0.009734	0.026696	0.432945	0.579545	-0.532208	0.439820
11010		9.549761	0.326509	-2.016103	0.017845	0.013197	0.031240	0.432904	0.579467	-0.532232	0.439933
11011		9.513646	0.337074	-2.071991	0.004963	0.010456	0.033226	0.432883	0.579367	-0.532298	0.440005
11012		9.529547	0.276329	-2.074937	-0.001855	-0.005367	0.032086	0.432845	0.579289	-0.532404	0.440017
11013		9.582637	0.278510	-2.087056	-0.011217	-0.000445	0.025587	0.432860	0.579199	-0.532506	0.439998
11014		9.584243	0.279003	-2.129312	0.015279	-0.001282	0.020779	0.432810	0.579178	-0.532533	0.440042
11015		9.504600	0.367059	-2.097891	0.049759	0.007876	0.012591	0.432702	0.579236	-0.532443	0.440180
11016		9.406680	0.461942	-2.095452	0.085654	-0.006803	0.008504	0.432466	0.579413	-0.532289	0.440366
11017		9.406906	0.581071	-2.046437	0.125705	-0.006110	-0.004130	0.432144	0.579713	-0.532008	0.440627
11018		9.401494	0.672903	-2.084039	0.147669	0.005913	-0.019012	0.431826	0.580069	-0.531607	0.440955
11019		9.427607	0.650456	-2.126780	0.156362	0.015857	-0.034016	0.431541	0.580462	-0.531123	0.441298
11020		9.525940	0.702930	-2.218542	0.120124	0.012185	-0.037826	0.431363	0.580789	-0.530717	0.441531
11021		9.547219	0.674878	-2.134738	0.092697	0.002035	-0.035770	0.431229	0.581078	-0.530400	0.441662
11022		9.588103	0.642896	-2.065368	0.075791	-0.008780	-0.031710	0.431110	0.581340	-0.530154	0.441729
11023		9.540093	0.573729	-2.157109	0.040819	-0.008359	-0.030011	0.431085	0.581524	-0.529992	0.441706
11024		9.517655	0.528734	-2.175224	0.021841	0.000832	-0.019209	0.431116	0.581614	-0.529883	0.441687
11025		9.573017	0.463701	-2.205035	-0.024797	0.001529	-0.004199	0.431245	0.581566	-0.529925	0.441576
11026		9.599928	0.369040	-2.223288	-0.068649	-0.000063	0.014018	0.431455	0.581375	-0.530119	0.441388
11027		9.702937	0.251457	-2.211662	-0.110456	0.002388	0.036278	0.431738	0.581033	-0.530470	0.441140
11028		9.791678	0.165376	-2.100215	-0.147803	-0.006726	0.052868	0.432071	0.580580	-0.530973	0.440805
11029		9.839798	0.038240	-2.035587	-0.184621	-0.004156	0.070134	0.432471	0.580002	-0.531603	0.440414
11030		9.793642	-0.061495	-2.029053	-0.196008	0.004563	0.091517	0.432880	0.579319	-0.532301	0.440068
11031		9.732337	-0.150465	-2.135212	-0.197868	0.006721	0.107130	0.433258	0.578591	-0.533045	0.439752
11032		9.628172	-0.237373	-2.129888	-0.185128	0.007312	0.116882	0.433581	0.577862	-0.533784	0.439498
11033		9.582713	-0.264121	-2.189316	-0.167271	0.003956	0.120752	0.433832	0.577172	-0.534503	0.439282
11034		9.588187	-0.244512	-2.102753	-0.126674	-0.003930	0.108729	0.433980	0.576612	-0.535114	0.439127
11035		9.625269	-0.041934	-2.157463	-0.109126	0.005727	0.088730	0.434144	0.576128	-0.535605	0.439002
11036		9.587490	0.037245	-2.193814	-0.091079	0.024685	0.080993	0.434326	0.575657	-0.535992	0.438968
11037		9.625672	0.138332	-2.082651	-0.079049	0.037737	0.070537	0.434529	0.575213	-0.536296	0.438978
11038		9.635312	0.137393	-1.936566	-0.079022	0.044008	0.059738	0.434777	0.574778	-0.536554	0.438987
11039		9.724398	0.076270	-1.961095	-0.099460	0.048245	0.050679	0.435112	0.574316	-0.536824	0.438930
11040		9.719306	-0.248718	-1.952574	-0.079493	0.044831	0.047568	0.435392	0.573908	-0.537046	0.438913
11041		9.638286	-0.063496	-1.994599	-0.086031	0.033507	0.043455	0.435666	0.573528	-0.537295	0.438833
11042		9.736045	0.101292	-1.945877	-0.130809	0.043862	0.047694	0.436086	0.573011	-0.537631	0.438680
11043		9.719785	-0.185303	-1.922047	-0.137761	0.042171	0.047380	0.436520	0.572485	-0.537989	0.438496
11044		9.690775	-0.115389	-2.027390	-0.132286	0.032532	0.048661	0.436912	0.571986	-0.538356	0.438307
11045		9.660187	0.333864	-1.946300	-0.170467	0.041485	0.050483	0.437429	0.571380	-0.538796	0.438040
11046		9.609823	0.331821	-1.971936	-0.192828	0.047978	0.046934	0.438037	0.570714	-0.539261	0.437729
11047		9.604809	0.040602	-2.104921	-0.198537	0.046694	0.041412	0.438667	0.570056	-0.539726	0.437383
11048		9.715937	0.071778	-1.993660	-0.232726	0.048643	0.046263	0.439389	0.569300	-0.540274	0.436966
11049		9.601154	0.147126	-1.873484	-0.248674	0.056648	0.036763	0.440195	0.568518	-0.540815	0.436503
11050		9.604297	-0.358685	-1.843688	-0.260460	0.049649	0.028554	0.441038	0.567741	-0.541370	0.435975
11051		9.603667	0.123258	-1.766531	-0.228384	0.045403	0.003952	0.441832	0.567114	-0.541793	0.435461
11052		9.560407	0.374804	-1.766986	-0.230631	0.073822	-0.007294	0.442735	0.566442	-0.542126	0.435005
11053		9.530664	-0.440928	-1.912640	-0.240811	0.075602	-0.022863	0.443704	0.565786	-0.542434	0.434486
11054		9.414238	0.544602	-1.968254	-0.241990	0.088407	-0.049034	0.444772	0.565163	-0.542640	0.433948
11055		9.585971	-0.160223	-1.811041	-0.325392	0.105840	-0.020442	0.446049	0.564239	-0.543075	0.433294
11056		9.355735	0.334923	-2.015932	-0.324888	0.103785	-0.020241	0.447320	0.563315	-0.543511	0.432640
11057		9.559245	-0.133607	-1.664688	-0.295968	0.101369	-0.034095	0.448533	0.562501	-0.543848	0.432019
11058		9.439760	0.057776	-1.840017	-0.260365	0.091878	-0.035532	0.449626	0.561787	-0.544121	0.431468
11059		9.687315	-0.257383	-2.082888	-0.341858	0.105054	-0.028873	0.450961	0.560843	-0.544564	0.430744
11060		9.253485	0.547242	-2.271470	-0.232453	0.101349	-0.000098	0.451922	0.560074	-0.544854	0.430369
11061		9.368555	0.133201	-2.332779	-0.299679	0.131560	0.035324	0.453062	0.558996	-0.545326	0.429974
11062		9.616984	0.199963	-1.846697	-0.306866	0.056062	0.046353	0.453999	0.558033	-0.546008	0.429372
11063		10.063983	-0.243435	-2.384298	-0.291570	0.071385	0.071545	0.454873	0.557009	-0.546692	0.428905
11064		9.742950	0.586983	-2.500042	-0.292169	0.080486	0.096219	0.455717	0.555894	-0.547424	0.428522
11065		9.794288	0.400972	-2.326478	-0.354193	0.090040	0.128208	0.456681	0.554531	-0.548360	0.428064
11066		9.561296	0.729473	-2.398756	-0.417311	0.074285	0.141331	0.457748	0.553013	-0.549504	0.427421
11067		9.518852	1.331054	-2.347017	-0.431736	0.088344	0.149327	0.458869	0.551412	-0.550667	0.426791
11068		9.544605	0.779999	-2.468565	-0.545709	0.089952	0.176458	0.460241	0.549460	-0.552146	0.425918
11069		9.727079	0.414816	-2.674192	-0.483678	0.029691	0.186304	0.461255	0.547762	-0.553648	0.425059
11070		9.692154	0.353849	-2.709673	-0.430055	0.016227	0.177923	0.462105	0.546235	-0.555034	0.424292
11071		9.579481	0.651931	-2.993029	-0.417796	0.031718	0.177332	0.462961	0.544704	-0.556357	0.423594
11072		9.509983	0.893756	-3.021538	-0.372384	0.057174	0.173795	0.463771	0.543228	-0.557512	0.423085
11073		9.507161	1.051104	-2.797803	-0.350773	0.093206	0.173509	0.464618	0.541725	-0.558537	0.422730
11074		9.430684	1.327046	-2.797688	-0.313260	0.128828	0.174122	0.465462	0.540226	-0.559399	0.422579
11075		9.290843	1.328119	-2.602840	-0.318928	0.139276	0.174036	0.466345	0.538693	-0.560249	0.422437
11076		9.278673	1.235173	-2.417367	-0.244730	0.104795	0.181802	0.466918	0.537386	-0.561035	0.422425
11077		9.387454	1.309345	-2.712681	-0.211149	0.093884	0.186436	0.467360	0.536172	-0.561786	0.422482
11078		9.354327	1.331132	-2.897660	-0.252967	0.113155	0.204878	0.467924	0.534762	-0.562630	0.422520
11079		9.264495	1.430325	-2.567594	-0.300922	0.123150	0.219469	0.468607	0.533177	-0.563594	0.422482
11080		9.184178	1.377165	-2.493319	-0.367469	0.133449	0.233836	0.469458	0.531369	-0.564711	0.422323
11081		9.261724	1.237523	-2.251067	-0.395046	0.109200	0.255704	0.470265	0.529486	-0.566002	0.422064
11082		9.535237	1.014991	-2.183929	-0.417609	0.096839	0.275502	0.471051	0.527514	-0.567418	0.421753
11083		9.576437	0.817067	-2.159271	-0.474227	0.119052	0.293317	0.472001	0.525309	-0.568950	0.421381
11084		9.533090	0.616588	-2.170689	-0.540516	0.124981	0.311777	0.473099	0.522870	-0.570654	0.420878
11085		9.640559	0.497340	-2.109953	-0.564719	0.126818	0.339552	0.474193	0.520293	-0.572473	0.420371
11086		9.543514	0.424798	-2.056688	-0.539025	0.132978	0.355958	0.475199	0.517713	-0.574256	0.419987
11087		9.663705	0.492126	-2.112781	-0.560070	0.125859	0.385450	0.476165	0.515009	-0.576175	0.419589
11088		9.552842	0.524217	-2.240325	-0.597408	0.129888	0.387484	0.477229	0.512191	-0.578161	0.419096
11089		9.435866	0.486960	-2.093983	-0.535704	0.128570	0.406371	0.478083	0.509470	-0.580062	0.418814
11090		9.533713	0.386463	-2.276749	-0.545831	0.133119	0.420515	0.478941	0.506668	-0.582001	0.418543
11091		9.369222	0.561476	-2.432224	-0.583271	0.155683	0.419657	0.479950	0.503721	-0.583959	0.418215
11092		9.438392	0.603614	-2.069589	-0.557700	0.157484	0.435275	0.480862	0.500783	-0.585889	0.417997
11093		9.436730	0.808344	-2.254790	-0.619892	0.166651	0.448211	0.481916	0.497628	-0.587957	0.417648
11094		9.482009	1.027612	-2.149291	-0.675708	0.183045	0.458993	0.483124	0.494259	-0.590122	0.417198
11095		9.391552	1.384287	-2.191044	-0.789760	0.225672	0.465329	0.484708	0.490493	-0.592434	0.416530
11096		9.301885	1.648725	-2.338121	-0.916599	0.250553	0.466002	0.486665	0.486342	-0.594939	0.415543
11097		9.234851	1.828389	-2.515059	-1.020426	0.279321	0.472044	0.488919	0.481842	-0.597595	0.414326
11098		9.254137	1.956954	-2.499647	-1.074924	0.291046	0.457181	0.491366	0.477198	-0.600279	0.412923
11099		9.225818	1.884346	-2.460342	-1.088257	0.292542	0.444303	0.493845	0.472546	-0.602936	0.411442
11100		9.206042	1.623859	-2.453260	-1.049667	0.283739	0.412624	0.496268	0.468084	-0.605433	0.409959
11101		9.245327	1.227156	-2.415965	-1.002391	0.274278	0.380813	0.498599	0.463841	-0.607761	0.408507
11102		9.342150	0.692272	-2.351708	-0.922418	0.268445	0.344655	0.500801	0.459898	-0.609835	0.407176
11103		9.504917	0.404229	-2.336088	-0.837197	0.261462	0.310247	0.502843	0.456286	-0.611655	0.405994
11104		9.510825	0.262028	-2.325408	-0.733842	0.274328	0.277363	0.504756	0.453001	-0.613137	0.405061
11105		9.523963	0.267321	-2.336749	-0.644059	0.274963	0.251205	0.506514	0.450015	-0.614366	0.404332
11106		9.530556	0.461000	-2.400116	-0.578160	0.275961	0.239475	0.508158	0.447219	-0.615422	0.403766
11107		9.437280	0.646316	-2.481080	-0.496651	0.282596	0.225351	0.509656	0.444663	-0.616256	0.403428
11108		9.309898	1.103213	-2.584669	-0.449207	0.271834	0.217541	0.511039	0.442269	-0.616995	0.403179
11109		9.275522	1.495042	-2.757698	-0.439801	0.269532	0.205479	0.512408	0.439940	-0.617690	0.402926
11110		9.280177	1.774110	-2.890092	-0.433048	0.275267	0.190268	0.513814	0.437661	-0.618315	0.402660
11111		9.324530	1.919637	-3.067553	-0.450656	0.286644	0.155377	0.515356	0.435411	-0.618868	0.402278
11112		9.395579	2.105378	-3.208240	-0.463493	0.294028	0.103411	0.517068	0.433262	-0.619304	0.401730
11113		9.514500	2.258939	-3.306573	-0.514516	0.302337	0.039750	0.519033	0.431151	-0.619681	0.400886
11114		9.640823	2.590665	-3.328260	-0.593639	0.312578	-0.047223	0.521383	0.429071	-0.619992	0.399584
11115		9.936122	2.954195	-3.159434	-0.695651	0.337744	-0.137049	0.524202	0.426926	-0.620245	0.397798
11116		10.185174	3.405579	-2.966658	-0.824458	0.398851	-0.231938	0.527681	0.424587	-0.620378	0.395486
11117		10.331488	3.665035	-2.880358	-0.963006	0.476043	-0.324099	0.531850	0.421982	-0.620379	0.392679
11118		10.497309	3.609500	-2.923971	-1.038371	0.545527	-0.429683	0.536598	0.419335	-0.620097	0.389489
11119		10.604514	3.870703	-2.811025	-1.090494	0.614919	-0.544761	0.541869	0.416729	-0.619465	0.385977
11120		10.771601	3.786069	-2.621609	-1.168429	0.671297	-0.653788	0.547674	0.414107	-0.618569	0.382022
11121		10.904623	4.012724	-2.263694	-1.134776	0.738902	-0.785832	0.553845	0.411807	-0.617112	0.377946
11122		10.919234	4.157508	-2.127173	-1.173822	0.808024	-0.910371	0.560522	0.409615	-0.615236	0.373517
11123		10.992758	4.333764	-1.709411	-1.181555	0.864688	-1.045420	0.567606	0.407651	-0.612892	0.368792
11124		10.701938	4.359548	-1.569579	-1.252552	0.898396	-1.178361	0.575150	0.405786	-0.610251	0.363503
11125		10.293340	4.610857	-1.797585	-1.305045	0.890948	-1.307164	0.582963	0.404110	-0.607401	0.357649
11126		9.691273	4.872429	-2.125354	-1.425453	0.816855	-1.429901	0.590969	0.402545	-0.604654	0.350866
11127		9.176602	5.056542	-2.715915	-1.612184	0.650184	-1.562745	0.599017	0.401050	-0.602375	0.342757
11128		8.930886	5.261722	-3.146159	-1.908744	0.462065	-1.697900	0.607256	0.399338	-0.600788	0.332902
11129		8.863048	5.157158	-3.540092	-2.258354	0.303066	-1.809482	0.615790	0.397060	-0.599927	0.321299
11130		8.775754	4.496497	-3.977733	-2.514111	0.167423	-1.930706	0.624497	0.394488	-0.599500	0.308193
11131		9.406946	3.423703	-4.368105	-2.576743	0.003138	-1.950004	0.632705	0.391922	-0.599487	0.294443
11132		9.240533	2.483451	-4.421845	-2.524834	-0.158528	-1.965634	0.640201	0.389735	-0.599703	0.280368
11133		10.496451	1.630897	-4.958103	-2.435406	-0.304360	-1.968609	0.646929	0.387948	-0.600098	0.266199
11134		10.597357	-0.191892	-5.068659	-2.298432	-0.380276	-1.898918	0.652920	0.386439	-0.600538	0.252419
11135		11.684171	-0.366614	-6.086657	-2.033078	-0.470081	-1.959311	0.658074	0.386004	-0.600678	0.239011
11136		12.839062	-1.706979	-7.305830	-1.806391	-0.510063	-1.918517	0.662496	0.386200	-0.600630	0.226257
11137		11.626319	-1.203740	-7.598798	-1.633244	-0.489739	-1.887675	0.666493	0.386779	-0.600278	0.214139
11138		10.167318	-0.076953	-6.983419	-1.673220	-0.738776	-1.793780	0.669606	0.387190	-0.600873	0.201654
11139		9.877598	1.046927	-5.667234	-1.721120	-1.010634	-1.669619	0.671751	0.387290	-0.602564	0.188876
11140		10.997296	1.953261	-4.745526	-1.685498	-1.153412	-1.634685	0.673246	0.387507	-0.604658	0.175977
11141		10.463889	4.367219	-2.896252	-1.836295	-1.249300	-1.688131	0.674676	0.387370	-0.606987	0.162243
11142		11.508531	5.194476	-2.308400	-2.333912	-1.437411	-1.733058	0.676379	0.385763	-0.610128	0.146433
11143		12.724367	3.333400	-3.078030	-2.578791	-1.522301	-1.615448	0.678012	0.382910	-0.613804	0.130094
11144		11.388278	3.840047	-3.002895	-2.656591	-1.569143	-1.573473	0.679411	0.379603	-0.617591	0.113507
11145		10.720927	3.065528	-2.743204	-2.828830	-1.795232	-1.634126	0.680268	0.375892	-0.621914	0.095725
11146		10.907284	2.605797	-2.233997	-3.021893	-1.904036	-1.623008	0.680887	0.371423	-0.626491	0.077119
11147		10.827547	2.154357	-2.306320	-3.032145	-1.965360	-1.536672	0.681032	0.366521	-0.631205	0.058646
11148		11.012373	1.444457	-2.450184	-2.940863	-1.987226	-1.482243	0.680654	0.361652	-0.635825	0.040557
11149		11.093619	0.847584	-2.417630	-2.656720	-1.974852	-1.439373	0.679557	0.357482	-0.640200	0.023531
11150		11.252512	0.565332	-1.526532	-2.499049	-1.947348	-1.372145	0.678030	0.353543	-0.644383	0.007255
11151		11.135616	-0.033297	-1.209005	-2.265089	-1.813844	-1.294212	0.676327	0.350030	-0.648074	-0.007750
11152		10.698796	-0.415038	-0.837174	-2.057132	-1.659970	-1.234665	0.674588	0.346966	-0.651213	-0.021622
11153		10.245903	-0.960122	-0.544453	-1.857079	-1.535960	-1.170248	0.672779	0.344298	-0.653946	-0.034386
11154		9.641392	-1.075312	-0.409292	-1.564709	-1.438844	-1.057912	0.670673	0.342231	-0.656498	-0.045665
11155		8.964725	-0.989322	-0.043417	-1.254246	-1.347602	-0.946827	0.668270	0.340818	-0.658932	-0.055383
11156		8.312258	-1.070313	0.270286	-0.957407	-1.238934	-0.809816	0.665672	0.339965	-0.661267	-0.063493
11157		7.898007	-0.751352	0.594881	-0.745084	-1.139116	-0.659659	0.663032	0.339327	-0.663562	-0.070215
11158		7.500780	-1.063798	0.513314	-0.573076	-1.028248	-0.507557	0.660465	0.338792	-0.665792	-0.075680
11159		7.344308	-0.332854	0.583647	-0.387388	-0.945434	-0.350272	0.657881	0.338363	-0.668076	-0.079855
11160		7.443605	-0.212385	0.699539	-0.383925	-0.867193	-0.189201	0.655575	0.337438	-0.670380	-0.083355
11161		7.565306	-0.333919	0.807130	-0.376221	-0.786904	-0.020276	0.653567	0.335989	-0.672714	-0.086123
11162		7.583931	-0.694291	0.745685	-0.300698	-0.716398	0.153554	0.651707	0.334237	-0.675150	-0.087953
11163		7.455866	-1.282000	0.713312	-0.192590	-0.651854	0.332273	0.649936	0.332257	-0.677730	-0.088717
11164		7.304837	-1.310943	0.535931	0.006894	-0.584423	0.535118	0.648112	0.330280	-0.680525	-0.088043
11165		7.236399	-0.463168	1.040125	0.111704	-0.563682	0.772170	0.646252	0.327846	-0.683699	-0.086204
11166		7.263303	0.588434	2.571606	-0.224416	-0.505608	1.025113	0.645201	0.323467	-0.686972	-0.084581
11167		6.869537	-0.132047	2.114961	-0.511895	-0.355143	1.237965	0.645175	0.317455	-0.689990	-0.082978
11168		6.091033	-0.160453	-0.074456	-0.065395	-0.307804	1.426596	0.644623	0.312264	-0.693315	-0.079167
11169		5.638044	0.888602	-1.867658	0.457301	-0.438668	1.632311	0.642812	0.308020	-0.697546	-0.073114
11170		5.265295	2.570364	-2.389834	0.774778	-0.628131	1.806526	0.639831	0.304135	-0.702709	-0.065713
11171		5.567343	3.495716	-4.283001	1.186303	-0.708361	1.920411	0.635886	0.301136	-0.708349	-0.056641
11172		6.481731	5.189336	-5.741545	1.803508	-0.466729	1.931321	0.631764	0.300093	-0.713298	-0.044985
11173		7.768392	7.461596	-6.002326	2.118381	-0.104016	1.863529	0.628342	0.300286	-0.716938	-0.031849
11174		9.192171	10.365776	-6.113168	2.093891	0.054078	1.743062	0.625396	0.300783	-0.719758	-0.018923
11175		10.699271	13.506285	-6.900874	1.591891	-0.071707	1.540359	0.622667	0.300354	-0.722495	-0.008611
11176		11.455601	15.498176	-7.051081	0.801654	-0.298144	1.233701	0.620273	0.298506	-0.725361	-0.002438
11177		11.404666	15.055572	-5.998120	-0.194887	-0.376000	0.892994	0.619104	0.294723	-0.727906	-0.001010
11178		10.469770	12.768854	-5.633541	-0.586412	-0.450438	0.597766	0.618257	0.290774	-0.730208	-0.002032
11179		9.903750	10.350408	-4.671326	-0.674734	-0.540963	0.368076	0.617227	0.287369	-0.732415	-0.004214
11180		10.095587	6.804507	-3.667839	-0.791627	-0.587340	0.237062	0.616188	0.284076	-0.734547	-0.007309
11181		10.576983	3.147475	-2.442198	-0.935888	-0.442110	0.240272	0.615877	0.280292	-0.736219	-0.010685
11182		12.625080	0.549401	-1.664344	-1.349437	-0.346370	0.350765	0.616458	0.274804	-0.737723	-0.015091
11183		15.127571	0.484008	-4.873084	-1.878491	-0.362547	0.575926	0.617655	0.266805	-0.739519	-0.020736
11184		15.359082	2.801126	-3.342867	-1.846909	0.107609	0.635473	0.620480	0.258670	-0.739898	-0.025420
11185		10.448522	6.140201	3.451534	-1.876161	0.570026	0.445431	0.624999	0.251113	-0.738519	-0.030150
11186		7.831962	2.676436	3.658180	-2.244683	0.308069	0.318030	0.628932	0.242815	-0.737643	-0.036984
11187		7.825936	-1.322486	0.279871	-1.783229	0.011219	0.333225	0.631147	0.235881	-0.737707	-0.042463
11188		9.234030	-5.539085	-2.974334	-1.951550	-0.069029	0.575932	0.633223	0.227498	-0.738227	-0.047892
11189		11.126849	-9.517332	-2.450443	-1.236668	-0.163338	0.992551	0.634133	0.219859	-0.739654	-0.049491
11190		12.672644	-8.229106	-3.762914	-0.315808	-0.143651	1.412260	0.634113	0.213653	-0.741690	-0.046369
11191		12.750230	-4.764930	-4.563151	0.460227	0.002728	1.658341	0.633794	0.209049	-0.743672	-0.039441
11192		12.291887	-0.375779	-2.209207	0.587811	0.114778	1.703612	0.633709	0.204686	-0.745323	-0.031772
11193		12.101342	1.855136	-1.466359	0.417683	0.160136	1.647482	0.633922	0.199966	-0.746686	-0.024853
11194		12.201780	2.888709	-0.653834	0.109432	0.232575	1.513242	0.634668	0.194736	-0.747594	-0.019419
11195		11.369028	1.422332	-0.900416	-0.188819	0.328503	1.415270	0.636035	0.188891	-0.748028	-0.015295
11196		10.167598	1.004606	-1.055662	-0.323756	0.366907	1.363353	0.637639	0.182790	-0.748241	-0.011795
11197		9.597507	0.133441	-1.833979	-0.311537	0.370901	1.367284	0.639216	0.176704	-0.748405	-0.008232
11198		9.818667	-0.892056	-2.887646	-0.168435	0.336890	1.385935	0.640502	0.171008	-0.748663	-0.004113
11199		9.546284	-0.679863	-3.225887	0.050108	0.325860	1.414416	0.641527	0.165911	-0.748943	0.000894
11200		9.164421	1.613203	-3.028983	0.185831	0.306568	1.458361	0.642323	0.161088	-0.749286	0.006530
11201		10.386142	-1.514719	-3.320405	-0.014197	0.251178	1.489669	0.643036	0.155494	-0.749796	0.011475
11202		9.557592	-0.954324	-2.810837	0.160469	0.259745	1.482742	0.643606	0.150486	-0.750223	0.017054
11203		9.240524	-0.709135	-2.428188	0.164765	0.256848	1.460911	0.644134	0.145566	-0.750594	0.022571
11204		9.084269	0.610372	-2.116515	0.394568	0.216712	1.452234	0.644307	0.141430	-0.751021	0.028881
11205		8.921563	1.759203	-2.023648	0.361202	0.208193	1.458789	0.644437	0.137156	-0.751438	0.035076
11206		8.798281	1.767477	-1.636020	0.359529	0.222924	1.463804	0.644580	0.132845	-0.751774	0.041294
11207		8.271479	2.017525	-1.418333	0.351122	0.219490	1.439446	0.644693	0.128591	-0.752057	0.047393
11208		8.168685	1.595032	-1.654003	0.155077	0.224466	1.436180	0.644910	0.123696	-0.752334	0.052758
11209		8.364583	1.089831	-2.051739	0.061527	0.233560	1.437189	0.645191	0.118482	-0.752564	0.057780
11210		8.674266	1.587740	-2.333700	-0.091124	0.265236	1.393305	0.645659	0.112910	-0.752674	0.062113
11211		8.138056	2.024412	-2.355792	-0.220569	0.266493	1.330286	0.646205	0.107141	-0.752739	0.065755
11212		7.967754	2.407338	-2.358607	-0.325981	0.190104	1.244601	0.646524	0.101370	-0.753003	0.068676
11213		7.899171	2.613341	-2.558760	-0.387718	0.165211	1.158503	0.646801	0.095723	-0.753283	0.071066
11214		8.115230	2.779549	-2.558881	-0.375813	0.107083	1.073583	0.646864	0.090453	-0.753677	0.073187
11215		8.262791	2.287515	-2.550253	-0.326911	0.080083	1.004766	0.646825	0.085610	-0.754073	0.075246
11216		8.509608	1.679144	-2.270102	-0.219390	0.054708	0.957151	0.646644	0.081307	-0.754473	0.077534
11217		8.953180	1.046936	-2.105113	-0.058201	0.044051	0.927107	0.646366	0.077649	-0.754805	0.080316
11218		9.378223	0.565843	-1.964170	0.071261	0.055407	0.948020	0.646050	0.074333	-0.755048	0.083652
11219		9.938546	0.220560	-2.266887	0.139489	0.061346	1.007516	0.645690	0.071015	-0.755245	0.087439
11220		10.451083	0.225334	-2.410373	0.162177	0.077264	1.087553	0.645314	0.067464	-0.755402	0.091576
11221		10.377483	0.308570	-2.316900	0.186875	0.109019	1.176225	0.644984	0.063644	-0.755453	0.096107
11222		9.987083	0.599749	-2.316107	0.203785	0.091667	1.249474	0.644509	0.059617	-0.755558	0.100928
11223		9.837668	1.190137	-2.239410	0.271524	0.067667	1.277756	0.643887	0.055718	-0.755680	0.106082
11224		9.413471	2.133726	-2.011060	0.334889	0.093278	1.259323	0.643321	0.052077	-0.755654	0.111415
11225		8.936889	3.153517	-1.870087	0.333011	0.098205	1.189244	0.642804	0.048684	-0.755552	0.116512
11226		8.809755	3.726741	-1.719674	0.374591	0.104547	1.068842	0.642354	0.045870	-0.755346	0.121365
11227		8.820972	4.046705	-1.964304	0.349932	0.091808	0.913637	0.641963	0.043556	-0.755121	0.125617
11228		9.333307	4.095538	-2.494958	0.328270	0.112493	0.753238	0.641753	0.041754	-0.754786	0.129262
11229		9.950501	3.740687	-3.260589	0.192721	0.218300	0.644725	0.642047	0.039827	-0.754150	0.132086
11230		9.772353	4.248242	-3.737779	0.019527	0.345757	0.545898	0.642913	0.037607	-0.753193	0.133970
11231		9.798518	4.226578	-4.218782	-0.076591	0.439420	0.437053	0.644234	0.035396	-0.751956	0.135176
11232		9.844087	4.155066	-4.418275	-0.062479	0.469100	0.303517	0.645755	0.033708	-0.750580	0.135992
11233		9.751455	4.335681	-4.586812	0.059036	0.437917	0.141300	0.647272	0.033033	-0.749168	0.136729
11234		9.623609	4.741446	-4.943743	0.253124	0.408164	-0.070981	0.648804	0.033811	-0.747673	0.137462
11235		9.728617	5.551986	-4.746852	0.425419	0.412415	-0.286057	0.650500	0.035932	-0.745974	0.138137
11236		10.007858	6.279866	-4.389740	0.450775	0.465809	-0.477562	0.652524	0.038808	-0.744035	0.138268
11237		10.127438	6.676369	-4.406082	0.343979	0.569189	-0.693276	0.655120	0.042020	-0.741748	0.137338
11238		9.653796	7.332130	-4.212072	0.179801	0.640206	-0.921437	0.658164	0.045473	-0.739267	0.135046
11239		9.285661	7.882427	-3.577187	-0.076766	0.563661	-1.159638	0.661155	0.048974	-0.737097	0.131014
11240		10.146602	7.781318	-3.655514	-0.610836	0.482440	-1.455250	0.664152	0.051826	-0.735421	0.123990
11241		10.769498	7.411192	-4.415637	-1.309749	0.527032	-1.792709	0.667677	0.053478	-0.733830	0.113323
11242		10.804428	6.763106	-4.441681	-1.842021	0.463357	-2.150177	0.671224	0.054668	-0.732516	0.099451
11243		11.343692	5.879442	-3.988633	-2.021129	0.387140	-2.561587	0.674641	0.056736	-0.731209	0.083508
11244		11.439139	4.616055	-3.545917	-1.967891	0.235027	-2.929317	0.677473	0.060395	-0.730052	0.066386
11245		11.378588	3.163833	-2.855033	-1.798981	0.022890	-3.168659	0.679381	0.065541	-0.729210	0.048975
11246		11.910118	1.354511	-2.172927	-1.712609	-0.191673	-3.216224	0.680256	0.071238	-0.728821	0.031570
11247		12.432636	-0.803098	-2.712162	-1.757628	-0.313098	-3.203741	0.680487	0.076713	-0.728599	0.014014
11248		13.291192	-1.610827	-3.659747	-1.308947	-0.414779	-3.211742	0.679943	0.083791	-0.728459	-0.002046
11249		14.921708	-1.303466	-3.705773	-0.735156	-0.477391	-3.232171	0.678747	0.092876	-0.728297	-0.016115
11250		15.925843	-0.504620	-3.433279	-0.266626	-0.607010	-3.238364	0.676655	0.103605	-0.728412	-0.028623
11251		17.246139	2.744784	-4.360182	0.080113	-0.873966	-3.243823	0.673238	0.115479	-0.729255	-0.040031
11252		17.500671	3.212555	-4.125925	-0.163986	-0.923953	-3.087449	0.669591	0.125946	-0.730136	-0.051837
11253		17.577063	1.017328	-4.814845	-0.154604	-0.922960	-3.237379	0.665756	0.136923	-0.730696	-0.064071
11254		15.981087	3.906815	-3.122251	-0.414028	-0.833588	-3.159538	0.662235	0.146751	-0.730748	-0.076919
11255		14.930933	1.510659	-2.452564	-0.504458	-0.793820	-2.921966	0.658843	0.155361	-0.730636	-0.089217
11256		13.934496	1.707639	-0.996629	-0.801563	-0.780370	-2.885989	0.655564	0.162842	-0.730219	-0.102459
11257		12.877664	1.534726	-0.719940	-1.428762	-0.684079	-2.706875	0.653087	0.167557	-0.729150	-0.117228
11258		11.486301	-0.150929	-0.685459	-2.054238	-0.737746	-2.406681	0.650893	0.169070	-0.728000	-0.133301
11259		9.955482	0.661360	0.706556	-2.635942	-1.033851	-2.278857	0.648012	0.167952	-0.727320	-0.151256
11260		10.440985	0.858586	0.255446	-3.163742	-1.270564	-2.075613	0.644585	0.164172	-0.726942	-0.170628
11261		10.109618	0.928456	-0.542033	-3.401868	-1.325862	-1.883178	0.641052	0.158783	-0.726409	-0.190185
11262		8.304777	-0.602931	-2.559223	-3.017758	-1.416968	-1.762443	0.636704	0.154095	-0.726359	-0.208004
11263		7.982657	-0.934222	-3.313832	-2.417635	-1.482939	-1.664386	0.631554	0.150862	-0.726984	-0.223327
11264		8.291289	-2.107629	-3.029863	-2.117895	-1.437030	-1.555471	0.626271	0.148231	-0.727715	-0.237154
11265		8.254455	-3.009114	-2.786343	-1.533018	-1.324684	-1.430675	0.620992	0.147081	-0.728745	-0.248327
11266		8.262673	-3.763224	-2.614981	-1.018171	-1.203413	-1.280580	0.615838	0.147154	-0.730074	-0.257063
11267		8.038628	-5.206068	-2.275463	-0.348060	-1.030155	-1.111877	0.610984	0.148883	-0.731801	-0.262678
11268		7.759669	-5.273828	-1.040622	0.056285	-0.929574	-0.853550	0.606449	0.151061	-0.733941	-0.265951
11269		7.676152	-5.041531	-0.187688	0.244069	-0.858108	-0.538837	0.602416	0.152731	-0.736352	-0.267497
11270		7.545324	-4.528927	0.113247	0.137117	-0.801655	-0.223791	0.599026	0.152997	-0.738719	-0.268427
11271		7.161464	-4.241405	-0.067113	-0.152605	-0.774161	0.053826	0.596316	0.151372	-0.740840	-0.269537
11272		7.053829	-4.159470	0.083177	-0.401630	-0.744461	0.283935	0.594165	0.148188	-0.742734	-0.270840
11273		6.597866	-4.333560	0.514694	-0.642766	-0.666655	0.482129	0.592738	0.143619	-0.744217	-0.272355
11274		5.607947	-4.740834	1.026743	-0.711535	-0.657889	0.691653	0.591620	0.138082	-0.745739	-0.273483
11275		5.045964	-3.826206	2.466556	-0.800159	-0.831975	0.946526	0.590217	0.131093	-0.747812	-0.274293
11276		5.370418	-2.590665	4.600220	-1.052949	-1.044199	1.278632	0.588540	0.121833	-0.750368	-0.275183
11277		5.794616	-1.784099	4.116366	-0.938970	-0.974123	1.573884	0.587383	0.111879	-0.753000	-0.274693
11278		5.236836	0.420549	1.414183	-0.277820	-0.734257	1.817844	0.586989	0.103286	-0.755927	-0.270834
11279		4.371605	2.715140	-2.858050	0.898445	-0.673007	1.990529	0.586355	0.097619	-0.760272	-0.262001
11280		4.474707	5.144435	-4.517544	1.891097	-0.570222	2.104381	0.585638	0.094600	-0.765558	-0.248998
11281		6.277708	7.119094	-4.673015	2.218994	0.117372	2.108293	0.587302	0.093300	-0.769073	-0.234305
11282		7.263597	13.876925	-6.672748	2.816812	0.787946	1.881790	0.590867	0.095350	-0.771001	-0.217582
11283		8.270223	24.368894	-11.481497	2.875278	0.180474	1.430137	0.591456	0.098685	-0.774292	-0.202271
11284		14.669575	30.467900	-11.269936	0.839847	-0.837569	0.758750	0.588404	0.097547	-0.778028	-0.197328
11285		20.337807	25.700722	-6.758400	-0.908776	-0.986190	-0.081108	0.584911	0.094267	-0.779946	-0.201685
11286		19.681870	16.639985	-5.190260	-0.966544	-0.745806	-0.667255	0.581820	0.093319	-0.780746	-0.207876
11287		12.266307	9.608232	-4.680322	-0.575921	-0.492802	-0.873678	0.579343	0.094547	-0.781057	-0.213007
11288		4.185859	1.366081	-3.815386	-0.979729	-0.529858	-0.825210	0.576918	0.094372	-0.781053	-0.219583
11289		0.943325	-7.163134	-2.537861	-1.632935	-0.659671	-0.389729	0.574711	0.090427	-0.780896	-0.227446
11290		2.084857	-12.688941	-0.432009	-1.155682	-0.921904	0.373912	0.571961	0.084653	-0.782406	-0.231377
11291		9.631273	-9.743115	5.325465	-0.717791	-0.489198	1.322548	0.571696	0.076886	-0.783627	-0.230611
11292		10.830670	-5.897755	2.314008	0.957851	0.653253	1.593452	0.575486	0.074147	-0.783598	-0.222021
11293		12.465620	-0.309380	-1.390686	4.025883	0.767565	1.301479	0.578107	0.081638	-0.786263	-0.202280
11294		15.525082	12.128088	-4.397412	5.457284	0.727686	1.185767	0.579483	0.093725	-0.789943	-0.177215
11295		16.126515	20.766834	-9.321480	1.459331	0.213707	1.103319	0.580445	0.093867	-0.791189	-0.168204
11296		23.967732	18.864596	-14.649497	-3.203703	-1.774337	0.523935	0.575186	0.081022	-0.793800	-0.180214
11297		20.963177	7.485624	5.369267	-5.392048	0.069810	0.005766	0.577514	0.065196	-0.788479	-0.201317
11298		8.113751	-11.160401	9.749453	-4.141459	0.624548	-0.116418	0.581153	0.054006	-0.782309	-0.217572
11299		7.523076	-15.234211	0.093735	-1.433242	-0.007619	0.186200	0.581693	0.049021	-0.780814	-0.222620
11300		7.608192	-13.190198	-6.787705	0.221125	0.376669	0.960458	0.584047	0.046326	-0.780284	-0.218862
11301		6.998695	-8.425221	-5.011664	1.043158	0.301475	1.630115	0.586532	0.043392	-0.781037	-0.209948
11302		10.276670	-4.846903	-2.759969	1.016346	-0.066032	1.948275	0.587799	0.038795	-0.782864	-0.200277
11303		14.244653	-3.076188	-3.088512	0.686686	0.182693	1.972963	0.590083	0.033327	-0.783541	-0.191716
11304		16.258894	-0.614709	-1.512151	0.604675	0.538811	1.784009	0.593555	0.028646	-0.782971	-0.183924
11305		14.073916	1.356371	-2.280522	0.404169	0.811257	1.637117	0.597972	0.024147	-0.781293	-0.177278
11306		10.492110	1.437294	-3.867547	0.393759	0.826509	1.595735	0.602356	0.019786	-0.779495	-0.170773
11307		7.952502	1.776069	-4.431732	0.513564	0.718991	1.620623	0.606284	0.015616	-0.778051	-0.163743
11308		6.566992	1.987034	-4.595784	0.529847	0.512059	1.684600	0.609384	0.011098	-0.777204	-0.156466
11309		7.589728	1.300220	-4.275632	1.039650	0.227025	1.659005	0.611275	0.008074	-0.777539	-0.147347
11310		8.967204	1.119404	-2.911426	0.911223	0.167822	1.617203	0.612847	0.004769	-0.777895	-0.138837
11311		9.348926	0.413757	-2.743637	0.825517	0.266201	1.604551	0.614760	0.001306	-0.777811	-0.130681
11312		8.853289	1.367917	-2.390770	0.705178	0.342629	1.641813	0.616930	-0.002641	-0.777367	-0.122843
11313		8.371870	2.122485	-1.605892	0.361714	0.372207	1.644969	0.619182	-0.007661	-0.776548	-0.116312
11314		8.260701	0.753190	-1.262403	0.096566	0.373491	1.656463	0.621377	-0.013564	-0.775527	-0.110744
11315		8.198386	0.621365	-1.519800	-0.095419	0.308603	1.624656	0.623265	-0.019977	-0.774534	-0.106015
11316		7.901713	0.613946	-2.149499	-0.323101	0.220899	1.593272	0.624721	-0.027032	-0.773653	-0.102239
11317		8.173961	1.481080	-2.696755	-0.415204	0.130084	1.595333	0.625786	-0.034418	-0.772945	-0.098807
11318		8.625948	1.628876	-3.129068	-0.479289	0.128271	1.600045	0.626778	-0.042030	-0.772169	-0.095589
11319		8.332704	1.413146	-2.927030	-0.466585	0.146086	1.583645	0.627807	-0.049524	-0.771280	-0.092379
11320		8.297999	2.042675	-2.771116	-0.281733	0.091823	1.546866	0.628600	-0.056307	-0.770616	-0.088560
11321		7.891520	2.093898	-2.874362	-0.061463	0.023784	1.489405	0.629151	-0.062180	-0.770217	-0.084078
11322		7.990630	1.371203	-2.788214	0.276090	-0.027584	1.413761	0.629533	-0.066701	-0.770112	-0.078533
11323		8.519137	0.745666	-2.730752	0.620115	-0.006237	1.343114	0.630072	-0.069835	-0.770039	-0.071915
11324		8.897430	0.645801	-2.246144	0.951819	0.092405	1.307555	0.631043	-0.071745	-0.769753	-0.064164
11325		9.328931	0.803877	-1.922277	1.107971	0.143092	1.321167	0.632241	-0.073186	-0.769287	-0.055792
11326		9.873830	1.407973	-2.041952	1.118223	0.205230	1.368749	0.633625	-0.074762	-0.768570	-0.047234
11327		10.357382	2.305411	-2.207849	1.049487	0.249336	1.443500	0.635130	-0.076829	-0.767600	-0.038710
11328		10.514131	2.940568	-1.923042	0.771622	0.266828	1.502648	0.636535	-0.080015	-0.766457	-0.031044
11329		9.876931	3.601402	-1.372757	0.521910	0.279206	1.505759	0.637863	-0.084013	-0.765167	-0.024320
11330		8.990939	4.755842	-1.007951	0.270154	0.222887	1.457490	0.638814	-0.088644	-0.764009	-0.018681
11331		8.207719	5.212287	-1.232781	0.010836	0.117366	1.342683	0.639233	-0.093677	-0.763151	-0.014359
11332		8.219560	5.013149	-1.904144	-0.113821	-0.034624	1.194805	0.638976	-0.098548	-0.762810	-0.010934
11333		9.331480	4.623998	-2.949296	-0.162752	-0.077433	1.049770	0.638535	-0.103028	-0.762622	-0.008148
11334		9.614099	4.457503	-3.517467	-0.292519	0.082925	0.944552	0.638610	-0.107539	-0.761953	-0.006265
11335		9.636408	3.859649	-4.018436	-0.370260	0.239046	0.911291	0.639243	-0.112190	-0.760761	-0.004849
11336		9.665716	3.723041	-3.998936	-0.399433	0.329525	0.829477	0.640175	-0.116629	-0.759314	-0.003859
11337		9.568079	3.061806	-3.971817	-0.304726	0.428685	0.683031	0.641557	-0.120221	-0.757590	-0.003034
11338		9.316695	2.380477	-4.629922	-0.100016	0.433515	0.480344	0.643067	-0.122380	-0.755966	-0.002123
11339		9.434825	2.732352	-5.382903	0.318099	0.397321	0.231955	0.644733	-0.122246	-0.754570	-0.000439
11340		10.084852	3.602730	-5.315409	0.806638	0.394502	-0.043591	0.646682	-0.119473	-0.753342	0.002143
11341		10.416305	5.303350	-4.647307	1.196191	0.409532	-0.325169	0.648954	-0.114379	-0.752163	0.005249
11342		9.955274	7.187118	-4.010868	1.387367	0.443514	-0.604409	0.651440	-0.107607	-0.750987	0.008105
11343		8.890497	8.502471	-2.980111	1.343569	0.459602	-0.880673	0.653984	-0.099962	-0.749810	0.009888
11344		8.540349	8.871999	-2.083238	1.098745	0.447224	-1.145983	0.656328	-0.092128	-0.748765	0.009862
11345		9.170097	8.647405	-2.409831	0.580884	0.454849	-1.440245	0.658487	-0.084946	-0.747750	0.006956
11346		9.955072	8.383207	-3.660910	-0.094852	0.518849	-1.786372	0.660568	-0.078735	-0.746626	0.000347
11347		10.369623	8.601411	-4.107910	-0.725386	0.625722	-2.199937	0.662792	-0.073142	-0.745156	-0.009982
11348		10.875454	8.405198	-3.262057	-1.273802	0.568340	-2.621803	0.664475	-0.067804	-0.743849	-0.023766
11349		11.350757	8.018427	-2.457803	-1.647334	0.441162	-2.998332	0.665406	-0.062356	-0.742789	-0.040127
11350		11.390608	6.503474	-2.179443	-1.915083	0.190940	-3.280155	0.665047	-0.056751	-0.742349	-0.058393
11351		11.732612	3.548675	-1.381073	-1.807303	-0.072777	-3.433645	0.663491	-0.050278	-0.742545	-0.076677
11352		12.183952	0.967267	-1.209640	-1.585096	-0.268788	-3.443852	0.660979	-0.043018	-0.743229	-0.094163
11353		13.574647	-0.218489	-2.356804	-1.195223	-0.373290	-3.380657	0.657985	-0.034739	-0.744154	-0.109923
11354		15.202143	-0.295929	-4.177514	-0.950742	-0.512380	-3.346275	0.654285	-0.025782	-0.745457	-0.124662
11355		17.892681	3.310074	-5.353030	-0.983219	-0.650170	-3.350180	0.649890	-0.017018	-0.746932	-0.139452
11356		18.903351	4.124562	-7.059470	-1.266933	-0.702456	-3.253788	0.645092	-0.009537	-0.748166	-0.154961
11357		20.215070	4.600421	-5.810900	-1.143607	-0.647211	-3.118945	0.640436	-0.002148	-0.749073	-0.169487
11358		17.270574	-0.608676	-3.616750	-0.812288	-0.462514	-3.087509	0.636284	0.006378	-0.749492	-0.182658
11359		15.561064	-0.794156	-2.391406	-0.406561	-0.522227	-3.033625	0.631809	0.015930	-0.750264	-0.194081
11360		13.305826	-2.659495	-2.331005	-0.382191	-0.450679	-2.802153	0.627620	0.024792	-0.750733	-0.204644
11361		14.034865	-2.267338	0.150266	-0.546603	-0.583909	-2.783936	0.622875	0.032898	-0.751274	-0.215714
11362		13.171803	1.073971	3.024494	-2.109738	-0.503995	-2.568101	0.618731	0.035343	-0.749779	-0.231849
11363		12.245746	-0.240738	2.069861	-3.179258	-0.675610	-2.256725	0.614301	0.033031	-0.747389	-0.250905
11364		11.351463	1.076951	0.929066	-3.494275	-0.753097	-2.062778	0.609571	0.028941	-0.744606	-0.270458
11365		10.552295	-0.366030	-2.998522	-2.892235	-0.615378	-1.888647	0.605286	0.026202	-0.741966	-0.287103
11366		8.784079	-34.266367	-25.555182	-0.765023	1.620020	-6.376082	0.602649	0.049619	-0.734041	-0.309088
11367		-5.163964	49.678865	38.562694	-1.463005	-2.049618	2.059723	0.598302	0.034615	-0.738568	-0.308793
11368		19.553513	-25.412643	-27.102530	-3.043717	-2.707851	-1.937787	0.585812	0.028619	-0.741218	-0.326497
11369		6.596454	7.800309	0.875348	-0.768767	-0.184022	-1.469674	0.582982	0.031487	-0.740090	-0.333779
11370		6.777415	-6.331851	-4.408608	-0.730842	-0.962941	-1.326853	0.577370	0.032748	-0.741290	-0.340678
11371		7.922273	-3.546621	-2.445040	-0.310809	-0.714920	-1.076397	0.573006	0.034683	-0.742493	-0.345204
11372		6.330545	-6.069286	-1.935754	0.206404	-0.597644	-0.834097	0.569316	0.037440	-0.744313	-0.347094
11373		6.449568	-6.088571	0.109470	0.497726	-0.839690	-0.590201	0.565065	0.039715	-0.747356	-0.347252
11374		7.097497	-6.550271	-0.057514	0.403479	-0.846567	-0.322029	0.561197	0.040722	-0.750335	-0.346984
11375		7.131918	-6.213812	0.040988	0.273661	-0.680684	-0.027263	0.558488	0.040499	-0.752682	-0.346296
11376		7.028112	-5.908387	0.145732	0.085431	-0.572611	0.265545	0.556672	0.038826	-0.754506	-0.345441
11377		5.828832	-6.193365	0.970426	-0.365600	-0.535566	0.537163	0.555558	0.034891	-0.755499	-0.345484
11378		4.720373	-6.425523	1.493822	-0.622655	-0.778036	0.816408	0.553976	0.028787	-0.756798	-0.345745
11379		4.858720	-4.968228	3.921123	-1.240173	-0.965098	1.169861	0.552341	0.019282	-0.757563	-0.347342
11380		5.497430	-3.946476	5.697667	-1.858100	-0.906177	1.537528	0.551511	0.006741	-0.757088	-0.350154
11381		4.884527	-2.501077	2.307393	-0.951830	-0.712091	1.740172	0.551648	-0.003706	-0.757569	-0.348941
11382		3.858210	1.431625	-1.811494	0.627546	-0.751019	1.904032	0.551812	-0.010389	-0.760858	-0.341307
11383		3.114336	3.038598	-6.505728	2.089347	-0.812785	2.020741	0.551885	-0.013498	-0.766674	-0.327798
11384		4.963733	3.866368	-7.898188	3.332121	-0.429062	2.092674	0.553420	-0.012789	-0.773254	-0.309260
11385		7.787351	8.908458	-5.836814	3.889350	0.575806	1.973355	0.558513	-0.008600	-0.777555	-0.288785
11386		9.198651	20.222213	-8.192609	3.936297	0.577241	1.665053	0.562915	-0.003070	-0.781556	-0.268864
11387		13.332310	35.620108	-12.034741	2.556140	-0.642423	1.101647	0.561656	-0.000813	-0.786803	-0.255896
11388		21.479152	37.963185	-7.758751	-0.291852	-1.286738	0.085352	0.556597	-0.003473	-0.790043	-0.256942
11389		23.635537	22.786553	-6.045432	-1.592824	-0.879345	-0.857793	0.552053	-0.005648	-0.790320	-0.265706
11390		15.993797	12.387159	-4.521868	-0.877140	-0.175652	-1.219142	0.549801	-0.003500	-0.789538	-0.272647
11391		7.532117	2.581693	-4.095233	-1.263725	-0.148354	-1.184255	0.547703	-0.002564	-0.788082	-0.280965
11392		3.791082	-7.576273	-2.657087	-1.845975	-0.494275	-0.788738	0.544655	-0.005237	-0.786738	-0.290459
11393		2.601267	-12.379031	0.176224	-1.437724	-0.626993	0.016158	0.542151	-0.010140	-0.786320	-0.296092
11394		7.308711	-4.794032	8.409173	-0.823177	-0.189819	0.769566	0.542369	-0.015684	-0.785650	-0.297228
11395		8.939531	-4.928456	-1.190627	2.255280	0.594159	0.743929	0.545822	-0.011537	-0.787337	-0.286436
11396		13.921993	0.868603	-7.967318	6.234546	0.289485	0.483954	0.547525	0.004346	-0.795123	-0.260725
11397		19.055714	11.771081	-8.876779	4.541522	0.518404	0.532605	0.549894	0.015555	-0.799465	-0.241310
11398		15.427790	13.532603	-9.238747	-2.530938	-0.125949	0.570616	0.550163	0.006043	-0.796803	-0.249778
11399		18.016741	6.192427	-1.473068	-5.596639	-0.952246	0.046296	0.546433	-0.010953	-0.792107	-0.271769
11400		10.963917	-3.586300	6.989817	-3.470255	0.391235	-0.149235	0.547565	-0.019547	-0.786201	-0.285794
11401		10.298259	-13.114399	4.674067	-1.140948	0.124724	0.171994	0.548178	-0.023248	-0.784202	-0.289805
11402		9.595942	-12.689801	-4.564623	0.524188	0.399594	0.976996	0.551070	-0.025065	-0.783844	-0.285100
11403		9.393782	-7.977119	-5.123387	1.131885	0.374127	1.727390	0.554895	-0.028150	-0.784331	-0.275905
11404		11.476178	-4.482264	-1.893381	1.011500	0.219870	2.113381	0.558493	-0.033279	-0.784989	-0.266028
11405		14.449009	-3.013844	-2.191059	0.489502	0.288278	2.188384	0.562326	-0.040105	-0.784631	-0.257944
11406		15.851619	-2.200117	-3.188115	0.130520	0.660746	2.064422	0.567333	-0.047036	-0.782697	-0.251607
11407		14.177788	1.045983	-2.417797	-0.009422	0.850048	1.896272	0.572822	-0.053491	-0.779963	-0.246315
11408		11.681638	1.129075	-2.939785	-0.442382	0.899853	1.914009	0.578335	-0.061225	-0.776481	-0.242604
11409		9.044882	1.409101	-4.244198	0.035145	0.875279	1.892609	0.583820	-0.067481	-0.773550	-0.237109
11410		7.427041	2.041737	-5.338816	0.316163	0.654392	1.930498	0.588493	-0.073286	-0.771528	-0.230326
11411		7.213944	0.601493	-5.230541	0.985832	0.283159	1.958050	0.591936	-0.077556	-0.771262	-0.220798
11412		8.618505	-0.465718	-3.002129	0.988022	0.032896	1.993040	0.594349	-0.082204	-0.771659	-0.211032
11413		9.186878	-1.050103	-1.881363	1.080554	0.109330	2.004135	0.597052	-0.086521	-0.771805	-0.200899
11414		9.030939	0.808856	-1.983077	1.132840	0.160234	2.002002	0.599874	-0.090626	-0.771772	-0.190542
11415		9.213630	0.776149	-0.946992	0.417572	0.246660	2.125104	0.602769	-0.097295	-0.770632	-0.182564
11416		8.304232	-0.349765	-0.815425	0.219017	0.319371	2.213174	0.605829	-0.104855	-0.768982	-0.175055
11417		8.343634	1.291809	-0.075857	-0.275365	0.280685	2.228410	0.608443	-0.114003	-0.766888	-0.169360
11418		7.979246	1.820049	-0.667281	-0.540615	0.195867	2.185520	0.610451	-0.123871	-0.764770	-0.164718
11419		7.759992	1.683843	-1.987055	-0.859776	0.054340	2.138847	0.611630	-0.134626	-0.762725	-0.161355
11420		7.689787	1.676665	-3.179536	-0.762420	-0.081941	2.064921	0.612199	-0.144891	-0.761143	-0.157735
11421		7.423901	1.128383	-3.419163	-0.547723	-0.091108	1.973440	0.612775	-0.154115	-0.759714	-0.153594
11422		7.396329	1.254524	-3.325524	-0.168225	-0.114330	1.844626	0.613384	-0.161683	-0.758684	-0.148381
11423		7.432339	1.808144	-3.328075	0.249227	-0.100177	1.633463	0.614218	-0.167116	-0.757999	-0.142290
11424		7.714972	2.580584	-2.755602	0.714277	0.017257	1.385527	0.615664	-0.170097	-0.757442	-0.135298
11425		8.187382	3.357809	-2.522602	0.889559	0.110417	1.217034	0.617506	-0.171817	-0.756778	-0.128266
11426		9.009708	2.992494	-2.388924	0.980555	0.166387	1.147317	0.619538	-0.172962	-0.756031	-0.121133
11427		9.836536	2.499931	-2.380416	1.136780	0.210700	1.129021	0.621852	-0.173500	-0.755189	-0.113519
11428		10.133848	2.477355	-2.780232	1.195302	0.195760	1.158081	0.624101	-0.173968	-0.754381	-0.105561
11429		10.412084	2.964137	-2.363951	1.142991	0.224450	1.207357	0.626422	-0.174751	-0.753338	-0.097670
11430		10.202422	3.676229	-1.404428	1.007395	0.268755	1.231817	0.628731	-0.176044	-0.752041	-0.090219
11431		9.575201	4.388385	-0.877925	0.757561	0.255584	1.216212	0.630761	-0.178058	-0.750615	-0.083744
11432		8.647271	4.703349	-1.152441	0.420943	0.191363	1.176550	0.632179	-0.181024	-0.749269	-0.078580
11433		8.175182	3.889308	-1.857531	0.222802	0.074266	1.077410	0.632958	-0.184282	-0.748246	-0.074381
11434		9.204760	3.765068	-2.685889	0.272923	0.002609	0.917099	0.633429	-0.186796	-0.747604	-0.070450
11435		10.403192	4.446668	-3.249284	0.230766	0.135150	0.760957	0.634329	-0.188835	-0.746618	-0.067298
11436		9.626072	4.872805	-3.388109	-0.028158	0.368270	0.671740	0.635799	-0.191332	-0.744882	-0.065586
11437		8.574847	5.496352	-3.186262	-0.285366	0.453977	0.595915	0.637345	-0.194352	-0.742816	-0.065142
11438		8.228843	5.437778	-3.410250	-0.407893	0.473953	0.465139	0.638771	-0.197289	-0.740774	-0.065595
11439		8.093067	4.414367	-4.871165	-0.356773	0.428568	0.266411	0.640059	-0.199333	-0.739035	-0.066467
11440		9.055190	4.411451	-6.137017	-0.019485	0.351548	0.009322	0.641297	-0.199352	-0.737918	-0.066893
11441		10.388208	5.462974	-6.164387	0.407348	0.359410	-0.279587	0.642946	-0.196925	-0.737150	-0.066712
11442		10.481898	7.144027	-5.621203	0.803484	0.344892	-0.585531	0.644811	-0.192087	-0.736853	-0.066098
11443		9.547893	8.908140	-5.071485	1.015510	0.292767	-0.909559	0.646616	-0.185377	-0.737023	-0.065725
11444		8.050366	9.543989	-4.354299	1.003808	0.269784	-1.224079	0.648174	-0.177540	-0.737520	-0.066433
11445		7.199408	9.264211	-3.657030	0.723495	0.193983	-1.525608	0.649129	-0.169547	-0.738318	-0.069078
11446		7.650781	8.694694	-4.015966	0.337567	0.241770	-1.878442	0.649752	-0.161493	-0.739063	-0.074357
11447		8.434390	8.422729	-5.125910	-0.225174	0.350823	-2.338563	0.650165	-0.153591	-0.739434	-0.083261
11448		9.709221	8.680575	-4.067777	-0.706737	0.345698	-2.808735	0.649879	-0.145507	-0.739841	-0.095498
11449		11.248311	8.654741	-1.975861	-1.046189	0.242011	-3.208794	0.648694	-0.137111	-0.740443	-0.110183
11450		12.959598	7.276678	-0.660732	-1.537040	0.060951	-3.548222	0.646084	-0.129089	-0.741357	-0.127681
11451		14.851917	3.364087	-0.093901	-1.772111	-0.123957	-3.730401	0.642328	-0.121251	-0.742473	-0.146448
11452		16.230672	-0.906694	-0.130875	-1.396581	-0.324516	-3.759211	0.637705	-0.112109	-0.744264	-0.163813
11453		17.569037	-3.864010	-1.410528	-0.724281	-0.469705	-3.705430	0.632755	-0.101089	-0.746720	-0.178360
11454		18.839445	-1.690416	-3.202750	-0.098496	-0.568944	-3.641972	0.627510	-0.088289	-0.749807	-0.190330
11455		19.898506	0.904425	-5.703195	0.041417	-0.730118	-3.559814	0.621631	-0.075496	-0.753213	-0.201361
11456		18.475182	2.627504	-6.375073	0.499233	-0.742151	-3.462578	0.615698	-0.061562	-0.756890	-0.210343
11457		18.793401	1.693981	-4.658617	0.763128	-0.708661	-3.340439	0.609950	-0.047253	-0.760436	-0.217864
11458		17.514270	2.399554	-2.051863	0.522264	-0.361101	-3.411939	0.605165	-0.033024	-0.762477	-0.226524
11459		17.306088	-2.434364	-2.512305	0.489921	-0.351604	-3.466099	0.600231	-0.018710	-0.764180	-0.235376
11460		14.771506	-0.339101	-0.792309	0.775865	-0.243034	-3.200463	0.595788	-0.004377	-0.765712	-0.242288
11461		14.004220	0.558797	0.715848	0.204432	-0.367674	-3.004020	0.590984	0.007300	-0.766707	-0.250690
11462		13.076581	2.192584	1.587948	-0.662245	-0.342431	-2.654310	0.586546	0.015089	-0.766464	-0.261283
11463		11.286923	4.262031	4.439007	-2.123196	-0.400833	-2.382585	0.582267	0.017365	-0.764326	-0.276530
11464		11.045158	0.480087	2.655009	-2.899597	-0.588817	-2.066975	0.577527	0.015920	-0.761528	-0.293740
11465		9.806227	2.082293	1.613002	-2.839414	-0.669326	-1.871585	0.572604	0.013763	-0.758816	-0.310054
11466		8.903630	0.895187	-0.371960	-3.009528	-0.646521	-1.812228	0.567646	0.010944	-0.755576	-0.326747
11467		7.953160	-0.001396	-1.573407	-2.677970	-0.634260	-1.730183	0.562711	0.008760	-0.752606	-0.341853
11468		7.627309	-0.954382	-2.267787	-2.353292	-0.774936	-1.619462	0.557215	0.006893	-0.750446	-0.355380
11469		6.972592	-2.957391	-2.909970	-1.861194	-0.820350	-1.488713	0.551671	0.005827	-0.749135	-0.366636
11470		4.792642	-8.040806	-1.973720	-1.374170	-0.401383	-1.451399	0.547640	0.006742	-0.747494	-0.375897
11471		10.605168	-3.164014	-6.154885	-0.416360	-1.474511	-1.220813	0.539876	0.007541	-0.750518	-0.381051
11472		4.440167	-5.844109	-3.496401	-0.256851	-0.203314	-0.759692	0.537696	0.009349	-0.750471	-0.384172
11473		6.265435	-4.532673	-1.415257	0.209271	-1.012108	-0.431225	0.533024	0.009712	-0.753494	-0.384756
11474		6.677644	-6.262279	-2.664983	-0.405732	-0.323281	-0.054029	0.531668	0.008243	-0.753575	-0.386504
