// General information: 
//  MT Manager version: 2019.1.1 
//  XDA version: 2019.1.1 build 3010 rev 85319 built on 2019-03-01
// Device information: 
//  DeviceId: 00B485EC
//  ProductCode: MTW2-3A7G6
//  Firmware Version: 4.6.0
//  Hardware Version: 2.0.0
// Device settings: 
//  Filter Profile: human(46.1)
//  Option Flags: Orientation Smoother Disabled, AHS Disabled, ICC Disabled
// Coordinate system: ENU
PacketCounter	SampleTimeFine	Acc_X	Acc_Y	Acc_Z	Gyr_X	Gyr_Y	Gyr_Z	Quat_q0	Quat_q1	Quat_q2	Quat_q3
10291		9.821167	0.482706	-0.367771	0.012396	0.059034	0.017102	-0.037925	-0.723651	0.022050	-0.688770
10292		9.773453	0.454992	-0.363814	0.004973	0.050956	0.017763	-0.037832	-0.723490	0.022096	-0.688943
10293		9.699595	0.409381	-0.411565	0.005188	0.040266	0.019123	-0.037741	-0.723365	0.022142	-0.689078
10294		9.677431	0.378613	-0.386331	0.004306	0.035642	0.024210	-0.037628	-0.723257	0.022214	-0.689195
10295		9.680110	0.368859	-0.334400	0.009705	0.041373	0.027756	-0.037493	-0.723127	0.022275	-0.689337
10296		9.680802	0.386825	-0.303325	-0.000956	0.027446	0.024804	-0.037396	-0.723046	0.022369	-0.689425
10297		9.702694	0.327494	-0.409651	0.001312	0.017015	0.021806	-0.037307	-0.723002	0.022438	-0.689473
10298		9.675343	0.355946	-0.451572	-0.007372	0.015581	0.019738	-0.037251	-0.722961	0.022537	-0.689516
10299		9.627942	0.348620	-0.423482	-0.006356	0.021738	0.021257	-0.037192	-0.722898	0.022630	-0.689581
10300		9.679219	0.341446	-0.375248	-0.004351	0.022207	0.014751	-0.037142	-0.722835	0.022700	-0.689648
10301		9.730438	0.334660	-0.327577	-0.005276	0.009745	0.012757	-0.037111	-0.722815	0.022761	-0.689669
10302		9.730485	0.333542	-0.327319	-0.006171	-0.004823	0.010606	-0.037082	-0.722844	0.022825	-0.689637
10303		9.706100	0.331626	-0.327614	-0.010175	-0.023709	0.011449	-0.037067	-0.722933	0.022902	-0.689543
10304		9.654210	0.359980	-0.373147	-0.010883	-0.040955	0.015586	-0.037037	-0.723086	0.023003	-0.689381
10305		9.602242	0.388227	-0.420094	-0.027997	-0.054707	0.014956	-0.037074	-0.723281	0.023156	-0.689169
10306		9.600869	0.390334	-0.449218	-0.038747	-0.052374	0.019715	-0.037129	-0.723468	0.023370	-0.688963
10307		9.577985	0.448933	-0.369767	-0.055850	-0.056171	0.026333	-0.037227	-0.723662	0.023661	-0.688743
10308		9.649762	0.452902	-0.402613	-0.067704	-0.061673	0.025121	-0.037367	-0.723876	0.023997	-0.688500
10309		9.720286	0.416344	-0.491560	-0.073203	-0.065036	0.019587	-0.037550	-0.724100	0.024324	-0.688242
10310		9.795106	0.345299	-0.512395	-0.075485	-0.068476	0.012885	-0.037760	-0.724335	0.024643	-0.687972
10311		9.871795	0.291311	-0.481365	-0.070189	-0.062344	0.012139	-0.037964	-0.724546	0.024934	-0.687728
10312		9.874759	0.258951	-0.443108	-0.066918	-0.066586	0.010645	-0.038151	-0.724777	0.025215	-0.687465
10313		9.827703	0.228468	-0.426939	-0.062446	-0.069288	0.014651	-0.038315	-0.725013	0.025488	-0.687196
10314		9.801099	0.254339	-0.452788	-0.060257	-0.071468	0.014423	-0.038465	-0.725261	0.025760	-0.686916
10315		9.751572	0.319581	-0.421329	-0.050355	-0.064509	0.024448	-0.038551	-0.725485	0.026026	-0.686664
10316		9.750749	0.341381	-0.423961	-0.049105	-0.071121	0.027145	-0.038617	-0.725733	0.026305	-0.686388
10317		9.728937	0.330521	-0.381090	-0.051327	-0.066765	0.027547	-0.038696	-0.725966	0.026585	-0.686126
10318		9.751941	0.376954	-0.381113	-0.051242	-0.069020	0.029532	-0.038761	-0.726206	0.026880	-0.685857
10319		9.748157	0.361677	-0.463491	-0.056743	-0.064369	0.028969	-0.038861	-0.726430	0.027185	-0.685602
10320		9.822209	0.313577	-0.481222	-0.057987	-0.063766	0.023637	-0.038971	-0.726650	0.027481	-0.685350
10321		9.773560	0.354054	-0.452533	-0.053606	-0.058117	0.028294	-0.039055	-0.726851	0.027771	-0.685122
10322		9.772503	0.331317	-0.486059	-0.060082	-0.059776	0.028346	-0.039156	-0.727057	0.028092	-0.684884
10323		9.796093	0.353797	-0.489538	-0.061105	-0.067934	0.026637	-0.039273	-0.727288	0.028402	-0.684619
10324		9.772444	0.370835	-0.466285	-0.066562	-0.061385	0.028407	-0.039398	-0.727497	0.028745	-0.684375
10325		9.722983	0.390962	-0.465664	-0.077302	-0.069021	0.028106	-0.039570	-0.727732	0.029117	-0.684100
10326		9.769988	0.394003	-0.498882	-0.087020	-0.068452	0.029525	-0.039764	-0.727961	0.029535	-0.683827
10327		9.722086	0.341807	-0.510067	-0.088142	-0.062159	0.031156	-0.039965	-0.728168	0.029955	-0.683577
10328		9.724922	0.331322	-0.468216	-0.092371	-0.072257	0.030453	-0.040175	-0.728409	0.030396	-0.683288
10329		9.772790	0.286402	-0.510662	-0.088033	-0.086666	0.024794	-0.040400	-0.728698	0.030795	-0.682949
10330		9.840769	0.298902	-0.595180	-0.083890	-0.082295	0.020693	-0.040612	-0.728975	0.031173	-0.682623
10331		9.844476	0.241418	-0.563113	-0.082990	-0.081787	0.015290	-0.040848	-0.729246	0.031519	-0.682303
10332		9.846115	0.212282	-0.551368	-0.078604	-0.088260	0.014604	-0.041062	-0.729544	0.031857	-0.681956
10333		9.844955	0.167124	-0.592056	-0.076392	-0.086461	0.016850	-0.041268	-0.729837	0.032187	-0.681615
10334		9.821327	0.185218	-0.570474	-0.063534	-0.080815	0.014738	-0.041427	-0.730112	0.032472	-0.681297
10335		9.796091	0.207496	-0.572512	-0.051682	-0.079380	0.013381	-0.041557	-0.730384	0.032704	-0.680987
10336		9.771779	0.181865	-0.582258	-0.043267	-0.069105	0.009641	-0.041662	-0.730624	0.032900	-0.680714
10337		9.794056	0.185780	-0.614309	-0.030179	-0.064129	0.013956	-0.041710	-0.730846	0.033057	-0.680464
10338		9.769349	0.184155	-0.618630	-0.017470	-0.058123	0.007532	-0.041729	-0.731053	0.033155	-0.680235
10339		9.797274	0.151751	-0.581658	-0.002325	-0.048948	0.009963	-0.041697	-0.731233	0.033201	-0.680043
10340		9.750502	0.121116	-0.562877	0.008413	-0.039279	0.010419	-0.041614	-0.731381	0.033219	-0.679887
10341		9.705513	0.086410	-0.519721	0.019182	-0.041874	0.007651	-0.041509	-0.731541	0.033182	-0.679723
10342		9.703495	0.089744	-0.548577	0.038799	-0.057724	0.005598	-0.041331	-0.731759	0.033080	-0.679504
10343		9.725718	0.093957	-0.580410	0.045304	-0.068315	0.002293	-0.041149	-0.732014	0.032937	-0.679248
10344		9.768638	0.107067	-0.662356	0.060505	-0.065355	0.004166	-0.040897	-0.732262	0.032756	-0.679004
10345		9.695723	0.172361	-0.627925	0.077850	-0.078722	0.000232	-0.040602	-0.732558	0.032495	-0.678716
10346		9.767427	0.221999	-0.633010	0.082308	-0.085381	0.001671	-0.040278	-0.732878	0.032231	-0.678401
10347		9.811492	0.254645	-0.688678	0.082414	-0.079502	0.006497	-0.039944	-0.733177	0.031977	-0.678110
10348		9.756253	0.288284	-0.761359	0.079169	-0.085346	0.005044	-0.039620	-0.733496	0.031737	-0.677795
10349		9.783334	0.303983	-0.719763	0.084551	-0.087608	0.003566	-0.039285	-0.733823	0.031465	-0.677473
10350		9.736338	0.273408	-0.704985	0.085753	-0.087910	0.006745	-0.038931	-0.734151	0.031208	-0.677150
10351		9.784777	0.249299	-0.721578	0.082644	-0.090001	0.009943	-0.038583	-0.734484	0.030967	-0.676821
10352		9.813516	0.168150	-0.696307	0.080543	-0.087921	0.012362	-0.038229	-0.734810	0.030749	-0.676496
10353		9.788623	0.165456	-0.702766	0.074155	-0.079556	0.017633	-0.037887	-0.735106	0.030563	-0.676202
10354		9.744295	0.222818	-0.623338	0.082516	-0.087541	0.007979	-0.037541	-0.735431	0.030322	-0.675879
10355		9.740112	0.205309	-0.683681	0.075882	-0.080665	0.006638	-0.037230	-0.735732	0.030091	-0.675579
10356		9.738516	0.276847	-0.679883	0.073353	-0.079695	-0.001848	-0.036951	-0.736029	0.029845	-0.675282
10357		9.765701	0.317819	-0.633849	0.072115	-0.077216	-0.004849	-0.036694	-0.736315	0.029584	-0.674995
10358		9.785709	0.302164	-0.695705	0.066684	-0.080863	-0.005998	-0.036453	-0.736614	0.029346	-0.674692
10359		9.826467	0.246881	-0.815172	0.058831	-0.073668	-0.010512	-0.036266	-0.736886	0.029110	-0.674415
10360		9.834665	0.207845	-0.729657	0.066437	-0.059928	-0.006495	-0.036029	-0.737115	0.028869	-0.674189
10361		9.812693	0.155537	-0.717372	0.061933	-0.061309	-0.010745	-0.035830	-0.737347	0.028620	-0.673956
10362		9.807680	0.187962	-0.766893	0.065951	-0.044649	-0.013941	-0.035621	-0.737523	0.028352	-0.673785
10363		9.862405	0.179000	-0.703037	0.068992	-0.036278	-0.016667	-0.035419	-0.737671	0.028056	-0.673647
10364		9.862516	0.155888	-0.709930	0.068996	-0.024058	-0.013547	-0.035198	-0.737778	0.027777	-0.673552
10365		9.813320	0.179470	-0.704756	0.061515	-0.029863	-0.012589	-0.035010	-0.737902	0.027521	-0.673438
10366		9.806915	0.167430	-0.783957	0.063625	-0.035970	-0.015320	-0.034814	-0.738048	0.027255	-0.673298
10367		9.754363	0.126510	-0.838639	0.065451	-0.029325	-0.021389	-0.034642	-0.738172	0.026953	-0.673184
10368		9.760655	0.116867	-0.769291	0.067678	-0.025488	-0.019026	-0.034445	-0.738284	0.026660	-0.673082
10369		9.737999	0.137614	-0.741405	0.063549	-0.013395	-0.011421	-0.034242	-0.738351	0.026399	-0.673029
10370		9.781754	0.170767	-0.791525	0.063855	-0.015992	-0.005133	-0.034011	-0.738430	0.026168	-0.672963
10371		9.810670	0.140540	-0.751073	0.062364	-0.019204	-0.015059	-0.033826	-0.738520	0.025899	-0.672884
10372		9.830414	0.149271	-0.803285	0.066883	-0.019799	-0.010973	-0.033604	-0.738612	0.025637	-0.672804
10373		9.779417	0.152123	-0.825012	0.066767	-0.017531	-0.012964	-0.033395	-0.738696	0.025359	-0.672733
10374		9.781091	0.173174	-0.799168	0.069124	-0.017996	-0.008772	-0.033158	-0.738782	0.025098	-0.672660
10375		9.807866	0.146382	-0.782351	0.068027	-0.009757	-0.007027	-0.032923	-0.738840	0.024837	-0.672618
10376		9.780913	0.173310	-0.801307	0.061670	-0.001488	-0.001797	-0.032690	-0.738869	0.024625	-0.672605
10377		9.827259	0.178191	-0.830345	0.052901	-0.010935	-0.006432	-0.032509	-0.738928	0.024419	-0.672557
10378		9.802847	0.177576	-0.829388	0.055161	-0.011222	-0.004389	-0.032308	-0.738989	0.024220	-0.672507
10379		9.732033	0.172058	-0.800169	0.050752	-0.012850	-0.006476	-0.032137	-0.739053	0.024021	-0.672451
10380		9.780523	0.173432	-0.806024	0.049949	-0.017347	-0.001353	-0.031945	-0.739134	0.023852	-0.672378
10381		9.779643	0.221411	-0.800497	0.042397	-0.012887	0.000396	-0.031779	-0.739196	0.023706	-0.672323
10382		9.752641	0.247924	-0.819988	0.032683	-0.008313	0.002250	-0.031638	-0.739242	0.023608	-0.672281
10383		9.752582	0.247517	-0.820812	0.016415	-0.007335	0.001975	-0.031563	-0.739282	0.023556	-0.672243
10384		9.776476	0.271846	-0.820060	0.001461	-0.004800	0.007168	-0.031519	-0.739312	0.023582	-0.672211
10385		9.802990	0.268271	-0.798809	-0.007057	-0.008626	0.009444	-0.031504	-0.739352	0.023637	-0.672166
10386		9.781252	0.239212	-0.776855	-0.026618	-0.007382	0.008256	-0.031559	-0.739386	0.023763	-0.672122
10387		9.754664	0.241168	-0.799501	-0.033922	-0.009465	0.013851	-0.031632	-0.739425	0.023927	-0.672070
10388		9.757203	0.212679	-0.780090	-0.040563	-0.014927	0.009425	-0.031734	-0.739482	0.024104	-0.671996
10389		9.777283	0.195744	-0.835266	-0.047150	-0.014380	0.007599	-0.031871	-0.739536	0.024289	-0.671923
10390		9.757747	0.163614	-0.789649	-0.049444	-0.009950	0.005861	-0.032018	-0.739575	0.024484	-0.671866
10391		9.709043	0.161834	-0.786490	-0.054556	-0.016262	0.011047	-0.032175	-0.739633	0.024708	-0.671787
10392		9.781830	0.163376	-0.794783	-0.063262	-0.021760	0.008874	-0.032362	-0.739709	0.024961	-0.671685
10393		9.704216	0.167703	-0.838555	-0.069320	-0.026209	0.017488	-0.032548	-0.739798	0.025259	-0.671567
10394		9.750400	0.171632	-0.869051	-0.082443	-0.019083	0.016453	-0.032780	-0.739861	0.025605	-0.671472
10395		9.747960	0.174636	-0.895083	-0.083736	-0.024712	0.010676	-0.033043	-0.739943	0.025928	-0.671357
10396		9.774382	0.171177	-0.875085	-0.094409	-0.016178	0.016142	-0.033320	-0.739995	0.026313	-0.671271
10397		9.798259	0.195160	-0.874818	-0.093309	-0.012172	0.017477	-0.033595	-0.740033	0.026692	-0.671200
10398		9.819892	0.222789	-0.898216	-0.098785	-0.009661	0.016837	-0.033885	-0.740062	0.027094	-0.671138
10399		9.821826	0.242643	-0.870846	-0.101196	-0.002942	0.013129	-0.034204	-0.740066	0.027482	-0.671101
10400		9.846794	0.194401	-0.880527	-0.106368	-0.000975	0.018937	-0.034516	-0.740064	0.027917	-0.671070
10401		9.850047	0.117402	-0.867846	-0.115012	-0.002455	0.019222	-0.034864	-0.740064	0.028375	-0.671033
10402		9.774262	0.166248	-0.877370	-0.101889	0.004670	0.023504	-0.035144	-0.740043	0.028811	-0.671023
10403		9.749423	0.212669	-0.866814	-0.105392	0.005392	0.018305	-0.035461	-0.740018	0.029233	-0.671016
10404		9.754346	0.180163	-0.822115	-0.105472	0.001517	0.015834	-0.035780	-0.740006	0.029653	-0.670993
10405		9.783553	0.148226	-0.779777	-0.105389	0.003437	0.018150	-0.036097	-0.739987	0.030074	-0.670978
10406		9.738947	0.186239	-0.719205	-0.095493	0.000526	0.020709	-0.036363	-0.739981	0.030478	-0.670953
10407		9.731877	0.220969	-0.786964	-0.101159	0.001396	0.015622	-0.036673	-0.739969	0.030876	-0.670931
10408		9.748007	0.164776	-0.896438	-0.096233	0.006083	0.006022	-0.036992	-0.739944	0.031228	-0.670924
10409		9.771846	0.213733	-0.889504	-0.096185	0.014163	0.008847	-0.037309	-0.739890	0.031584	-0.670949
10410		9.776520	0.205993	-0.839928	-0.096391	0.014598	0.004557	-0.037633	-0.739836	0.031931	-0.670974
10411		9.778307	0.250454	-0.806751	-0.098398	0.004296	0.005964	-0.037968	-0.739816	0.032284	-0.670961
10412		9.706044	0.200705	-0.807069	-0.090019	0.016512	0.002260	-0.038278	-0.739757	0.032601	-0.670993
10413		9.675337	0.188790	-0.879608	-0.084703	0.006197	-0.002099	-0.038588	-0.739732	0.032877	-0.670990
10414		9.755023	0.179438	-0.814195	-0.083389	-0.008549	-0.000148	-0.038880	-0.739758	0.033165	-0.670930
10415		9.772793	0.168672	-0.892801	-0.082095	-0.002918	0.005688	-0.039152	-0.739764	0.033460	-0.670893
10416		9.745655	0.220446	-0.906346	-0.081078	-0.000801	0.004737	-0.039419	-0.739764	0.033757	-0.670862
10417		9.707538	0.271034	-0.769135	-0.074748	0.009279	0.003138	-0.039675	-0.739731	0.034017	-0.670871
10418		9.758485	0.268395	-0.748536	-0.074638	0.007044	0.005109	-0.039918	-0.739705	0.034293	-0.670870
10419		9.756273	0.272696	-0.771860	-0.082232	0.001518	0.003897	-0.040201	-0.739696	0.034585	-0.670849
10420		9.752049	0.257220	-0.823790	-0.085408	-0.002445	0.004783	-0.040483	-0.739700	0.034897	-0.670811
10421		9.703694	0.232101	-0.823786	-0.087564	-0.004319	0.004719	-0.040781	-0.739708	0.035209	-0.670768
10422		9.701413	0.236637	-0.847922	-0.090866	-0.003953	0.003817	-0.041086	-0.739716	0.035536	-0.670723
10423		9.701378	0.237093	-0.848198	-0.087660	-0.006097	0.002397	-0.041393	-0.739731	0.035841	-0.670672
10424		9.752497	0.210627	-0.833108	-0.085522	-0.002100	0.002652	-0.041684	-0.739733	0.036146	-0.670634
10425		9.775045	0.167903	-0.868292	-0.085379	-0.010505	0.004068	-0.041977	-0.739762	0.036450	-0.670568
10426		9.774651	0.192298	-0.865253	-0.081006	-0.019009	0.003109	-0.042248	-0.739822	0.036742	-0.670469
10427		9.748186	0.172261	-0.893082	-0.075545	-0.019471	0.003900	-0.042506	-0.739882	0.037014	-0.670371
10428		9.776886	0.164640	-0.848997	-0.073507	-0.015274	0.002014	-0.042753	-0.739931	0.037277	-0.670287
10429		9.771971	0.197649	-0.893521	-0.071277	-0.009449	0.004606	-0.042993	-0.739960	0.037535	-0.670225
10430		9.754409	0.184001	-0.820515	-0.063638	-0.012139	0.005094	-0.043194	-0.740000	0.037776	-0.670155
10431		9.776089	0.213132	-0.843156	-0.062619	-0.010036	0.004153	-0.043402	-0.740032	0.038002	-0.670093
10432		9.778306	0.208578	-0.820038	-0.059131	-0.008737	0.009533	-0.043572	-0.740061	0.038243	-0.670036
10433		9.780265	0.228043	-0.792488	-0.057260	-0.010288	0.002796	-0.043764	-0.740096	0.038445	-0.669974
10434		9.758675	0.174723	-0.776444	-0.056834	-0.015248	0.010998	-0.043919	-0.740147	0.038685	-0.669893
10435		9.760595	0.193665	-0.749662	-0.054648	-0.019503	0.010504	-0.044075	-0.740212	0.038909	-0.669798
10436		9.756398	0.153893	-0.808050	-0.053537	-0.015566	0.011901	-0.044215	-0.740265	0.039140	-0.669717
10437		9.731485	0.200444	-0.798357	-0.054560	-0.017634	0.012842	-0.044363	-0.740324	0.039371	-0.669629
10438		9.757738	0.219897	-0.773668	-0.052508	-0.015508	0.010774	-0.044504	-0.740376	0.039595	-0.669548
10439		9.779887	0.200563	-0.805603	-0.049425	-0.013355	0.007576	-0.044650	-0.740422	0.039789	-0.669477
10440		9.757561	0.218882	-0.776179	-0.048190	-0.013753	0.010735	-0.044775	-0.740469	0.039998	-0.669403
10441		9.783855	0.238335	-0.751212	-0.046025	-0.013905	0.010619	-0.044901	-0.740517	0.040193	-0.669331
10442		9.757385	0.217540	-0.778772	-0.048182	-0.015784	0.010544	-0.045026	-0.740571	0.040401	-0.669249
10443		9.755209	0.197736	-0.808450	-0.044180	-0.011333	0.004265	-0.045164	-0.740610	0.040564	-0.669187
10444		9.779882	0.150323	-0.820902	-0.040880	-0.011682	0.005162	-0.045281	-0.740653	0.040728	-0.669122
10445		9.735608	0.163730	-0.765105	-0.031195	-0.010255	0.003755	-0.045376	-0.740691	0.040847	-0.669066
10446		9.760037	0.140204	-0.773227	-0.026732	-0.016963	0.005078	-0.045441	-0.740755	0.040963	-0.668984
10447		9.808540	0.141143	-0.779050	-0.023460	-0.011159	0.006559	-0.045498	-0.740799	0.041066	-0.668925
10448		9.783930	0.164053	-0.773378	-0.015921	-0.013680	0.004878	-0.045524	-0.740854	0.041144	-0.668857
10449		9.754621	0.196304	-0.815856	-0.013831	-0.019782	0.002027	-0.045558	-0.740929	0.041198	-0.668768
10450		9.759345	0.162979	-0.774800	-0.005054	-0.022721	0.003500	-0.045548	-0.741017	0.041235	-0.668669
10451		9.756619	0.191077	-0.796252	-0.008147	-0.022801	0.006895	-0.045544	-0.741103	0.041288	-0.668572
10452		9.780986	0.167277	-0.805040	-0.007248	-0.016392	0.004208	-0.045541	-0.741169	0.041334	-0.668495
10453		9.756577	0.166251	-0.804172	-0.005100	-0.012452	0.004481	-0.045534	-0.741221	0.041366	-0.668436
10454		9.783144	0.162119	-0.783664	-0.005318	-0.009955	0.000390	-0.045537	-0.741266	0.041391	-0.668384
10455		9.758552	0.185295	-0.777837	-0.006236	-0.012256	0.003469	-0.045540	-0.741317	0.041425	-0.668325
10456		9.755862	0.213760	-0.798642	-0.005275	-0.020213	-0.000592	-0.045545	-0.741397	0.041448	-0.668235
10457		9.806905	0.186762	-0.785414	-0.005529	-0.009508	-0.003898	-0.045572	-0.741439	0.041451	-0.668186
10458		9.736076	0.204612	-0.751121	0.000978	-0.012060	-0.004455	-0.045568	-0.741494	0.041438	-0.668127
10459		9.758304	0.162522	-0.787890	-0.000246	-0.015746	-0.008004	-0.045587	-0.741559	0.041408	-0.668055
10460		9.823964	0.179173	-0.867567	0.000653	-0.009340	-0.010690	-0.045606	-0.741605	0.041372	-0.668005
10461		9.777890	0.150455	-0.844270	0.003707	-0.001050	-0.013301	-0.045633	-0.741623	0.041310	-0.667987
10462		9.749028	0.136268	-0.894449	0.005873	-0.001215	-0.013422	-0.045642	-0.741643	0.041246	-0.667968
10463		9.773306	0.137859	-0.896810	0.008347	0.000003	-0.006914	-0.045631	-0.741657	0.041192	-0.667956
10464		9.726875	0.156327	-0.863599	0.016068	0.003190	-0.003728	-0.045571	-0.741664	0.041128	-0.667957
10465		9.751186	0.157124	-0.865706	0.014017	0.001084	-0.001659	-0.045516	-0.741676	0.041070	-0.667951
10466		9.802168	0.154001	-0.846269	0.022566	0.002695	-0.004089	-0.045433	-0.741686	0.040983	-0.667950
10467		9.775502	0.158067	-0.867734	0.025876	0.000287	-0.003393	-0.045346	-0.741703	0.040883	-0.667944
10468		9.782832	0.120317	-0.800978	0.026106	-0.004256	0.000504	-0.045233	-0.741737	0.040802	-0.667919
10469		9.824511	0.111104	-0.881918	0.029274	0.001765	-0.000163	-0.045119	-0.741749	0.040699	-0.667919
10470		9.773379	0.138169	-0.895957	0.030150	0.012276	-0.002464	-0.045004	-0.741729	0.040592	-0.667956
10471		9.775634	0.157576	-0.866342	0.030150	0.012281	-0.002464	-0.044894	-0.741707	0.040476	-0.667995
10472		9.724283	0.208919	-0.875712	0.028946	0.004491	-0.006397	-0.044796	-0.741713	0.040358	-0.668002
10473		9.748629	0.209728	-0.877432	0.026972	0.008322	-0.001600	-0.044696	-0.741702	0.040259	-0.668026
10474		9.773421	0.162365	-0.888420	0.033498	0.001679	-0.002540	-0.044568	-0.741718	0.040140	-0.668024
10475		9.751317	0.181179	-0.857083	0.033343	0.012165	-0.003717	-0.044452	-0.741697	0.040010	-0.668064
10476		9.778313	0.153363	-0.838826	0.036634	0.013869	-0.002631	-0.044314	-0.741672	0.039880	-0.668108
10477		9.754109	0.152718	-0.835450	0.037683	0.009800	-0.004147	-0.044183	-0.741660	0.039733	-0.668139
10478		9.724917	0.185225	-0.875710	0.039763	0.005758	-0.006795	-0.044046	-0.741664	0.039578	-0.668152
10479		9.726824	0.229115	-0.842488	0.038647	0.001851	-0.008190	-0.043928	-0.741679	0.039416	-0.668154
10480		9.753506	0.225599	-0.820505	0.039856	0.007608	-0.004458	-0.043783	-0.741676	0.039269	-0.668175
10481		9.753564	0.225907	-0.819731	0.039636	0.010104	-0.008555	-0.043660	-0.741663	0.039099	-0.668207
10482		9.736830	0.164455	-0.754389	0.041851	-0.000313	-0.009627	-0.043525	-0.741688	0.038927	-0.668198
10483		9.753809	0.202989	-0.823882	0.047306	0.001241	-0.008659	-0.043374	-0.741707	0.038733	-0.668198
10484		9.756139	0.199141	-0.800153	0.047221	-0.002638	-0.011183	-0.043224	-0.741741	0.038537	-0.668182
10485		9.727058	0.208095	-0.846303	0.043951	-0.008440	-0.012645	-0.043097	-0.741791	0.038340	-0.668146
10486		9.751490	0.185638	-0.854148	0.046136	-0.012693	-0.013140	-0.042957	-0.741858	0.038142	-0.668092
10487		9.799988	0.187837	-0.859646	0.050423	-0.004786	-0.012622	-0.042805	-0.741898	0.037922	-0.668069
10488		9.753673	0.183022	-0.831948	0.052503	-0.008821	-0.015260	-0.042649	-0.741954	0.037694	-0.668030
10489		9.773117	0.193299	-0.883206	0.050569	-0.013185	-0.011225	-0.042495	-0.742022	0.037482	-0.667977
10490		9.772967	0.194165	-0.884680	0.052533	-0.014952	-0.015819	-0.042340	-0.742098	0.037252	-0.667915
10491		9.775176	0.191217	-0.862314	0.054379	-0.014452	-0.022371	-0.042208	-0.742171	0.036987	-0.667857
10492		9.748352	0.196451	-0.885246	0.052296	-0.010390	-0.019735	-0.042068	-0.742232	0.036743	-0.667811
10493		9.723926	0.197054	-0.884094	0.055701	-0.010924	-0.016694	-0.041913	-0.742293	0.036494	-0.667767
10494		9.777183	0.190699	-0.841859	0.054858	-0.007257	-0.010902	-0.041733	-0.742344	0.036274	-0.667734
10495		9.750406	0.195172	-0.864337	0.049191	-0.008387	-0.016151	-0.041598	-0.742395	0.036045	-0.667698
10496		9.753004	0.168155	-0.845327	0.045747	-0.001674	-0.018639	-0.041479	-0.742425	0.035827	-0.667683
10497		9.775176	0.150392	-0.875822	0.047981	0.004132	-0.016063	-0.041350	-0.742434	0.035603	-0.667693
10498		9.725997	0.198097	-0.862501	0.050275	-0.000321	-0.014400	-0.041200	-0.742460	0.035384	-0.667685
10499		9.779636	0.167974	-0.823671	0.048109	-0.000159	-0.014281	-0.041063	-0.742483	0.035166	-0.667679
10500		9.803307	0.217807	-0.817517	0.049137	-0.000117	-0.015411	-0.040921	-0.742509	0.034948	-0.667671
10501		9.774484	0.202554	-0.867552	0.048120	-0.002188	-0.014460	-0.040786	-0.742538	0.034730	-0.667658
10502		9.750747	0.154562	-0.874168	0.044015	-0.004352	-0.010112	-0.040644	-0.742576	0.034550	-0.667634
10503		9.777084	0.175763	-0.848710	0.049359	-0.002553	-0.011299	-0.040494	-0.742607	0.034339	-0.667619
10504		9.752757	0.175778	-0.846619	0.046045	-0.000166	-0.012015	-0.040351	-0.742632	0.034144	-0.667611
10505		9.704105	0.174950	-0.842617	0.046323	-0.010832	-0.008618	-0.040202	-0.742689	0.033954	-0.667565
10506		9.750165	0.181125	-0.872492	0.044077	-0.014573	-0.011001	-0.040062	-0.742761	0.033771	-0.667503
10507		9.744574	0.238218	-0.913442	0.037583	-0.014128	-0.010646	-0.039954	-0.742827	0.033606	-0.667444
10508		9.746849	0.234926	-0.890719	0.029820	-0.009202	-0.013095	-0.039874	-0.742879	0.033463	-0.667399
10509		9.725189	0.206860	-0.869519	0.028884	-0.007382	-0.009639	-0.039793	-0.742921	0.033328	-0.667363
10510		9.771599	0.189085	-0.903055	0.026719	-0.007234	-0.009521	-0.039712	-0.742965	0.033208	-0.667325
10511		9.749298	0.208833	-0.873592	0.027990	-0.011713	-0.006714	-0.039623	-0.743021	0.033086	-0.667274
10512		9.788427	0.202850	-0.979282	0.020670	-0.009670	-0.000759	-0.039535	-0.743071	0.033019	-0.667227
10513		9.766143	0.222248	-0.949694	0.018168	-0.006858	-0.006901	-0.039485	-0.743110	0.032931	-0.667191
10514		9.795176	0.215201	-0.905142	0.013989	-0.012930	-0.005046	-0.039436	-0.743170	0.032871	-0.667131
10515		9.748578	0.233890	-0.873576	0.013055	-0.011113	-0.001592	-0.039384	-0.743220	0.032819	-0.667080
10516		9.738718	0.250374	-0.970839	0.006617	-0.018890	-0.001938	-0.039351	-0.743298	0.032796	-0.666996
10517		9.767357	0.267056	-0.923092	0.003439	-0.020828	-0.000862	-0.039333	-0.743379	0.032781	-0.666908
10518		9.743210	0.242376	-0.926796	-0.004204	-0.018175	-0.001342	-0.039338	-0.743453	0.032796	-0.666825
10519		9.770101	0.215137	-0.911093	-0.010697	-0.017746	-0.000984	-0.039372	-0.743521	0.032827	-0.666745
10520		9.745655	0.214742	-0.910334	-0.009792	-0.015457	-0.004086	-0.039407	-0.743585	0.032851	-0.666670
10521		9.745528	0.215233	-0.911573	-0.020641	-0.010642	-0.003135	-0.039487	-0.743628	0.032909	-0.666615
10522		9.750018	0.231438	-0.860451	-0.016217	-0.009080	-0.001053	-0.039536	-0.743668	0.032966	-0.666564
10523		9.772386	0.188425	-0.896303	-0.025847	-0.016739	-0.000144	-0.039625	-0.743730	0.033053	-0.666486
10524		9.770110	0.168526	-0.925914	-0.027806	-0.014952	0.004444	-0.039697	-0.743788	0.033169	-0.666411
10525		9.767191	0.196634	-0.947071	-0.027916	-0.014742	0.002299	-0.039784	-0.743842	0.033270	-0.666340
10526		9.742768	0.195986	-0.946078	-0.026889	-0.014706	0.001166	-0.039864	-0.743899	0.033371	-0.666267
10527		9.737685	0.204680	-0.995285	-0.030411	-0.013970	-0.004016	-0.039983	-0.743950	0.033458	-0.666198
10528		9.766845	0.197592	-0.950432	-0.027095	-0.000145	0.000264	-0.040068	-0.743959	0.033555	-0.666178
10529		9.725356	0.207840	-0.869820	-0.031287	-0.004158	0.002296	-0.040169	-0.743978	0.033667	-0.666146
10530		9.795653	0.214228	-0.901840	-0.033260	-0.016513	0.003494	-0.040264	-0.744039	0.033799	-0.666065
10531		9.773687	0.209341	-0.877271	-0.032207	-0.020573	0.002004	-0.040370	-0.744112	0.033916	-0.665971
10532		9.752348	0.156266	-0.861372	-0.033124	-0.020806	0.005284	-0.040458	-0.744188	0.034054	-0.665874
10533		9.744734	0.168628	-0.934809	-0.034302	-0.014476	0.004810	-0.040560	-0.744240	0.034185	-0.665803
10534		9.763640	0.201814	-0.981644	-0.032427	-0.003955	0.001295	-0.040661	-0.744260	0.034304	-0.665768
10535		9.760843	0.230228	-1.001199	-0.038974	0.004684	0.002382	-0.040789	-0.744246	0.034441	-0.665768
10536		9.763016	0.250113	-0.973057	-0.044140	-0.007547	0.004825	-0.040921	-0.744276	0.034613	-0.665718
10537		9.789141	0.294230	-0.943421	-0.050217	-0.003837	0.014135	-0.041052	-0.744288	0.034833	-0.665685
10538		9.743621	0.239796	-0.924113	-0.046033	-0.015992	0.008514	-0.041177	-0.744344	0.035026	-0.665604
10539		9.768385	0.192120	-0.936569	-0.045007	-0.015950	0.007380	-0.041311	-0.744399	0.035205	-0.665525
10540		9.722505	0.161936	-0.913436	-0.044923	-0.012054	0.009890	-0.041428	-0.744443	0.035398	-0.665459
10541		9.770679	0.186937	-0.915025	-0.046062	-0.011863	0.008881	-0.041560	-0.744482	0.035585	-0.665396
10542		9.768074	0.190627	-0.940113	-0.046966	-0.014143	0.011977	-0.041678	-0.744532	0.035793	-0.665322
10543		9.745319	0.257144	-0.901916	-0.049367	-0.011509	0.007996	-0.041828	-0.744570	0.035990	-0.665259
10544		9.723475	0.251712	-0.876491	-0.050407	-0.009480	0.009315	-0.041968	-0.744604	0.036200	-0.665201
10545		9.721479	0.207534	-0.909914	-0.052574	-0.009316	0.009441	-0.042122	-0.744634	0.036411	-0.665146
10546		9.723645	0.226786	-0.882413	-0.056905	-0.008998	0.009690	-0.042285	-0.744665	0.036644	-0.665089
10547		9.745635	0.207296	-0.913902	-0.052465	-0.009503	0.011587	-0.042432	-0.744695	0.036863	-0.665034
10548		9.748347	0.178498	-0.895436	-0.048336	-0.013461	0.006678	-0.042573	-0.744742	0.037056	-0.664961
10549		9.719149	0.162201	-0.946863	-0.041684	-0.022314	0.007702	-0.042694	-0.744818	0.037227	-0.664859
10550		9.740705	0.167017	-0.975256	-0.047153	-0.021810	0.006944	-0.042829	-0.744893	0.037418	-0.664756
10551		9.745296	0.182125	-0.925094	-0.045102	-0.021737	0.004675	-0.042973	-0.744966	0.037591	-0.664655
10552		9.720834	0.181301	-0.924584	-0.046141	-0.019710	0.005999	-0.043107	-0.745035	0.037775	-0.664559
10553		9.763879	0.215515	-0.974507	-0.044101	-0.017591	0.003918	-0.043247	-0.745094	0.037937	-0.664474
10554		9.771087	0.226293	-0.900030	-0.044103	-0.017581	0.003919	-0.043381	-0.745156	0.038106	-0.664386
10555		9.793204	0.183569	-0.936837	-0.044228	-0.015308	0.001965	-0.043529	-0.745208	0.038262	-0.664309
10556		9.766261	0.187527	-0.959373	-0.041072	-0.009289	0.001272	-0.043662	-0.745243	0.038410	-0.664252
10557		9.768728	0.183176	-0.936375	-0.035489	-0.010003	0.004171	-0.043771	-0.745279	0.038544	-0.664197
10558		9.741524	0.210782	-0.954405	-0.029998	-0.014591	0.004545	-0.043851	-0.745334	0.038668	-0.664123
10559		9.790219	0.188131	-0.965119	-0.028983	-0.012510	0.003600	-0.043938	-0.745379	0.038779	-0.664060
10560		9.795775	0.130781	-0.927357	-0.026509	-0.007188	0.010478	-0.043986	-0.745410	0.038912	-0.664014
10561		9.768621	0.158046	-0.944889	-0.018191	-0.007160	0.003536	-0.044034	-0.745440	0.038985	-0.663973
10562		9.741481	0.185484	-0.962252	-0.011602	-0.003766	0.005680	-0.044043	-0.745463	0.039050	-0.663943
10563		9.787204	0.215123	-0.986726	-0.017198	-0.000993	0.002975	-0.044089	-0.745472	0.039117	-0.663925
10564		9.792362	0.205884	-0.938778	-0.017116	0.004923	0.005695	-0.044119	-0.745465	0.039200	-0.663926
10565		9.767899	0.228843	-0.931141	-0.015075	0.007030	0.003615	-0.044158	-0.745449	0.039263	-0.663939
10566		9.765433	0.233060	-0.954079	-0.016122	0.011090	0.005135	-0.044188	-0.745421	0.039339	-0.663963
10567		9.767850	0.252152	-0.924646	-0.017137	0.009017	0.006079	-0.044225	-0.745398	0.039416	-0.663983
10568		9.722176	0.221747	-0.899713	-0.013812	0.004578	0.006574	-0.044240	-0.745392	0.039491	-0.663983
10569		9.743965	0.226561	-0.925438	-0.016101	0.007005	0.004751	-0.044277	-0.745375	0.039560	-0.663995
10570		9.766022	0.207375	-0.955534	-0.011667	0.008510	0.006833	-0.044284	-0.745357	0.039628	-0.664011
10571		9.746699	0.221300	-0.899816	-0.010879	0.011029	0.001602	-0.044314	-0.745328	0.039668	-0.664039
10572		9.719978	0.224836	-0.920139	-0.010652	0.010587	0.005890	-0.044321	-0.745304	0.039729	-0.664063
10573		9.744612	0.201150	-0.926102	-0.011792	0.010780	0.004882	-0.044343	-0.745275	0.039785	-0.664090
10574		9.744471	0.224672	-0.920552	-0.013834	0.008675	0.006960	-0.044358	-0.745256	0.039861	-0.664106
10575		9.768827	0.224849	-0.922335	-0.011648	0.004424	0.006446	-0.044371	-0.745249	0.039920	-0.664110
10576		9.725647	0.189959	-0.873731	-0.013937	0.006854	0.004623	-0.044394	-0.745236	0.039988	-0.664119
10577		9.766935	0.180747	-0.953799	-0.007584	0.012728	0.002679	-0.044408	-0.745202	0.040021	-0.664154
10578		9.791611	0.157257	-0.959280	-0.005449	0.018705	0.003134	-0.044406	-0.745152	0.040053	-0.664208
10579		9.764755	0.184850	-0.974170	-0.004433	0.020783	0.002193	-0.044409	-0.745092	0.040071	-0.664274
10580		9.764951	0.184684	-0.972242	-0.002257	0.018577	0.001872	-0.044399	-0.745043	0.040088	-0.664328
10581		9.765134	0.184519	-0.970433	-0.000092	0.018416	0.001746	-0.044390	-0.744992	0.040092	-0.664386
10582		9.770370	0.175238	-0.920632	0.002043	0.024395	0.002202	-0.044364	-0.744925	0.040095	-0.664463
10583		9.717017	0.182612	-0.961143	0.003181	0.024206	0.003211	-0.044337	-0.744855	0.040091	-0.664543
10584		9.741560	0.183066	-0.960987	0.000883	0.028687	0.001581	-0.044317	-0.744774	0.040095	-0.664636
10585		9.795152	0.199004	-0.910729	0.003271	0.028085	0.005744	-0.044282	-0.744691	0.040101	-0.664730
10586		9.768636	0.202359	-0.929537	0.003170	0.026263	0.003407	-0.044248	-0.744618	0.040104	-0.664815
10587		9.746815	0.220855	-0.896341	0.005245	0.022230	0.000750	-0.044223	-0.744555	0.040087	-0.664888
10588		9.740323	0.162609	-0.979506	0.007190	0.022514	-0.003662	-0.044197	-0.744495	0.040051	-0.664958
10589		9.764845	0.163527	-0.979515	0.008307	0.026421	-0.002264	-0.044172	-0.744420	0.040011	-0.665047
10590		9.794105	0.179197	-0.926625	0.009402	0.034427	-0.000478	-0.044128	-0.744321	0.039978	-0.665162
10591		9.723770	0.196221	-0.887670	0.010747	0.035847	0.005014	-0.044071	-0.744213	0.039956	-0.665288
10592		9.751046	0.167923	-0.867667	0.011817	0.027686	0.003106	-0.044006	-0.744137	0.039929	-0.665379
10593		9.727000	0.166920	-0.862626	0.011708	0.027911	0.000963	-0.043957	-0.744057	0.039890	-0.665474
10594		9.746888	0.152821	-0.914864	0.015746	0.022107	-0.006294	-0.043909	-0.744001	0.039816	-0.665544
10595		9.770871	0.201623	-0.905908	0.022557	0.023013	-0.000035	-0.043821	-0.743940	0.039734	-0.665623
10596		9.795400	0.202151	-0.905725	0.021387	0.029359	-0.000466	-0.043733	-0.743861	0.039662	-0.665722
10597		9.790894	0.211126	-0.949994	0.015745	0.042402	-0.002220	-0.043680	-0.743733	0.039594	-0.665872
10598		9.761911	0.243453	-0.986953	0.012571	0.038440	-0.001351	-0.043628	-0.743621	0.039547	-0.666003
10599		9.742754	0.233742	-0.933464	0.009408	0.032425	-0.000676	-0.043593	-0.743526	0.039508	-0.666114
10600		9.740635	0.238236	-0.954524	0.013773	0.025954	-0.001494	-0.043536	-0.743456	0.039458	-0.666199
10601		9.692582	0.212831	-0.951687	0.013739	0.032113	-0.000916	-0.043485	-0.743362	0.039401	-0.666310
10602		9.720335	0.137259	-0.940813	0.017881	0.028134	-0.005828	-0.043428	-0.743286	0.039321	-0.666403
10603		9.771284	0.158459	-0.914264	0.020151	0.027759	-0.003803	-0.043360	-0.743209	0.039232	-0.666499
10604		9.744581	0.186435	-0.928859	0.018008	0.023819	-0.004067	-0.043296	-0.743148	0.039158	-0.666576
10605		9.717874	0.214520	-0.943557	0.017891	0.026096	-0.006019	-0.043247	-0.743075	0.039071	-0.666665
10606		9.746580	0.254650	-0.886221	0.020021	0.032100	-0.005562	-0.043181	-0.742987	0.038984	-0.666773
10607		9.722831	0.230320	-0.885395	0.017854	0.032266	-0.005444	-0.043132	-0.742894	0.038900	-0.666884
10608		9.747397	0.231308	-0.884643	0.015804	0.030159	-0.003372	-0.043074	-0.742811	0.038835	-0.666985
10609		9.748207	0.183424	-0.890960	0.015931	0.025836	-0.001610	-0.043019	-0.742738	0.038772	-0.667073
10610		9.731079	0.169590	-0.814763	0.020080	0.021853	-0.006515	-0.042956	-0.742684	0.038683	-0.667143
10611		9.702292	0.178004	-0.858462	0.021445	0.017121	-0.001593	-0.042876	-0.742642	0.038600	-0.667200
10612		9.726404	0.202838	-0.855040	0.017071	0.007387	-0.004458	-0.042815	-0.742635	0.038529	-0.667215
10613		9.748437	0.208339	-0.880562	0.015949	0.005523	-0.005663	-0.042768	-0.742631	0.038451	-0.667227
10614		9.748172	0.232757	-0.875674	0.015961	0.003470	-0.005853	-0.042716	-0.742637	0.038380	-0.667228
10615		9.748475	0.209203	-0.879943	0.013808	0.001574	-0.005927	-0.042680	-0.742645	0.038311	-0.667224
10616		9.748440	0.209700	-0.880209	0.011692	-0.006486	-0.006571	-0.042645	-0.742684	0.038253	-0.667187
10617		9.748399	0.210109	-0.880566	0.009591	-0.000382	-0.003740	-0.042618	-0.742698	0.038207	-0.667176
10618		9.777629	0.178257	-0.839392	0.003081	0.002146	-0.003201	-0.042604	-0.742705	0.038189	-0.667170
10619		9.748391	0.210796	-0.880490	0.005169	-0.001903	-0.005842	-0.042597	-0.742723	0.038148	-0.667152
10620		9.772374	0.235918	-0.878359	0.007425	-0.000223	-0.003624	-0.042568	-0.742740	0.038115	-0.667138
10621		9.755309	0.198333	-0.808938	0.007322	-0.000005	-0.005768	-0.042555	-0.742752	0.038067	-0.667127
10622		9.750668	0.207409	-0.856782	0.008663	-0.000628	-0.000465	-0.042510	-0.742770	0.038041	-0.667112
10623		9.750953	0.183494	-0.861415	0.008573	-0.002464	-0.002799	-0.042483	-0.742791	0.038002	-0.667093
10624		9.770573	0.193419	-0.911874	0.007361	-0.006168	-0.006336	-0.042463	-0.742827	0.037959	-0.667056
10625		9.773165	0.165408	-0.892680	0.011744	0.001520	-0.003667	-0.042428	-0.742835	0.037906	-0.667052
10626		9.802085	0.157487	-0.847287	0.011885	-0.004861	-0.002090	-0.042377	-0.742868	0.037864	-0.667022
10627		9.799161	0.210150	-0.862168	0.015933	0.007590	-0.005477	-0.042332	-0.742856	0.037788	-0.667041
10628		9.776613	0.253237	-0.826534	0.011821	0.005414	-0.001144	-0.042279	-0.742855	0.037748	-0.667049
10629		9.750362	0.233018	-0.851931	0.007360	0.010053	-0.002679	-0.042255	-0.742833	0.037709	-0.667077
10630		9.753054	0.204936	-0.831581	0.002939	0.008529	-0.004781	-0.042247	-0.742819	0.037685	-0.667094
10631		9.751405	0.161786	-0.863752	0.002965	0.004419	-0.005158	-0.042250	-0.742816	0.037657	-0.667100
10632		9.729436	0.157258	-0.837285	0.000710	0.002738	-0.007376	-0.042259	-0.742821	0.037632	-0.667095
10633		9.778088	0.159283	-0.841061	0.000759	0.010741	-0.004476	-0.042266	-0.742796	0.037610	-0.667123
10634		9.756183	0.154571	-0.813823	0.007243	0.012329	-0.004634	-0.042242	-0.742770	0.037572	-0.667155
10635		9.753282	0.207686	-0.828220	0.005984	0.000621	-0.011070	-0.042252	-0.742781	0.037510	-0.667147
10636		9.775900	0.165563	-0.863212	0.009489	-0.000155	-0.005881	-0.042223	-0.742797	0.037461	-0.667133
10637		9.780176	0.181186	-0.811105	0.009605	-0.002427	-0.003925	-0.042193	-0.742818	0.037411	-0.667114
10638		9.751551	0.165581	-0.861385	0.008471	-0.002241	-0.004940	-0.042164	-0.742842	0.037369	-0.667092
10639		9.753511	0.185560	-0.833278	0.007439	-0.002271	-0.003810	-0.042143	-0.742861	0.037329	-0.667074
10640		9.775504	0.191179	-0.859290	0.002861	0.004639	-0.007303	-0.042144	-0.742861	0.037296	-0.667076
10641		9.799852	0.192373	-0.860883	0.005205	0.008160	-0.002753	-0.042128	-0.742845	0.037266	-0.667097
10642		9.777598	0.211390	-0.829528	-0.001189	0.008407	-0.000262	-0.042120	-0.742830	0.037273	-0.667113
10643		9.777992	0.187470	-0.833135	-0.000158	0.008438	-0.001392	-0.042121	-0.742812	0.037267	-0.667134
10644		9.775439	0.216042	-0.851673	-0.001306	0.010680	-0.002219	-0.042121	-0.742790	0.037267	-0.667158
10645		9.756149	0.182705	-0.805053	-0.000172	0.010495	-0.001204	-0.042121	-0.742765	0.037261	-0.667186
10646		9.751977	0.167578	-0.856167	-0.002352	0.012706	-0.000901	-0.042120	-0.742736	0.037269	-0.667218
10647		9.778683	0.164048	-0.833193	-0.006683	0.013016	-0.000671	-0.042140	-0.742701	0.037285	-0.667255
10648		9.776515	0.168689	-0.855614	-0.003616	0.017223	-0.003684	-0.042154	-0.742657	0.037287	-0.667303
10649		9.776325	0.192872	-0.849519	-0.001247	0.016634	0.000492	-0.042151	-0.742611	0.037289	-0.667354
10650		9.772246	0.177487	-0.900053	-0.001159	0.018474	0.002825	-0.042134	-0.742563	0.037306	-0.667408
10651		9.749723	0.220215	-0.863265	-0.003427	0.018848	0.000794	-0.042141	-0.742509	0.037319	-0.667467
10652		9.776467	0.216413	-0.839696	-0.003325	0.018632	0.002939	-0.042131	-0.742459	0.037343	-0.667522
10653		9.777006	0.192208	-0.841792	-0.003498	0.029136	0.001737	-0.042135	-0.742371	0.037357	-0.667619
10654		9.731244	0.162029	-0.815062	-0.002278	0.030792	0.005086	-0.042115	-0.742280	0.037385	-0.667719
10655		9.760257	0.153676	-0.767096	-0.000114	0.016458	0.001509	-0.042105	-0.742235	0.037387	-0.667770
10656		9.758117	0.157874	-0.789639	0.007545	0.011692	0.001809	-0.042058	-0.742211	0.037372	-0.667800
10657		9.753729	0.166309	-0.836215	0.001133	0.013998	0.004481	-0.042033	-0.742174	0.037381	-0.667842
10658		9.756094	0.161570	-0.810957	0.007531	0.013751	0.001998	-0.041986	-0.742143	0.037366	-0.667880
10659		9.773846	0.175279	-0.882956	-0.001303	0.024880	0.001245	-0.041982	-0.742070	0.037371	-0.667962
10660		9.751337	0.218095	-0.845393	-0.002465	0.029186	0.000606	-0.041978	-0.741985	0.037383	-0.668056
10661		9.751558	0.218142	-0.842822	-0.005721	0.023356	-0.000864	-0.041997	-0.741916	0.037394	-0.668131
10662		9.751408	0.242184	-0.836206	-0.005608	0.021082	0.001093	-0.042002	-0.741858	0.037420	-0.668194
10663		9.754453	0.189806	-0.819390	-0.006697	0.015095	-0.000490	-0.042023	-0.741815	0.037437	-0.668238
10664		9.777012	0.171078	-0.848382	-0.003498	0.014972	-0.001729	-0.042029	-0.741778	0.037445	-0.668278
10665		9.749078	0.131217	-0.901630	-0.001219	0.012540	0.000116	-0.042028	-0.741746	0.037447	-0.668314
10666		9.755495	0.142121	-0.823911	-0.001361	0.018937	-0.001462	-0.042026	-0.741696	0.037449	-0.668370
10667		9.730638	0.189306	-0.811300	-0.002170	0.014352	0.003578	-0.042016	-0.741657	0.037466	-0.668413
10668		9.750336	0.222559	-0.855367	-0.005468	0.014696	0.002671	-0.042015	-0.741620	0.037497	-0.668452
10669		9.754862	0.213702	-0.805981	-0.004546	0.017006	-0.000412	-0.042029	-0.741572	0.037509	-0.668504
10670		9.757198	0.209376	-0.780287	-0.006727	0.019223	-0.000113	-0.042042	-0.741520	0.037534	-0.668559
10671		9.755824	0.165750	-0.811525	-0.004420	0.012671	0.001355	-0.042047	-0.741487	0.037550	-0.668595
10672		9.753045	0.217817	-0.825526	-0.005231	0.008084	0.006394	-0.042032	-0.741472	0.037595	-0.668610
10673		9.709485	0.159345	-0.782285	-0.007586	-0.005525	-0.001255	-0.042059	-0.741498	0.037618	-0.668578
10674		9.729421	0.168927	-0.832324	-0.009713	0.002653	0.001757	-0.042075	-0.741501	0.037662	-0.668571
10675		9.704763	0.192242	-0.825792	-0.011933	-0.003151	-0.000846	-0.042116	-0.741519	0.037698	-0.668547
10676		9.757382	0.209031	-0.778075	-0.010787	-0.005398	-0.000018	-0.042141	-0.741548	0.037740	-0.668511
10677		9.755488	0.189539	-0.807041	-0.012938	-0.007301	-0.000098	-0.042180	-0.741580	0.037782	-0.668471
10678		9.751026	0.198454	-0.855864	-0.011763	-0.013666	0.000350	-0.042207	-0.741637	0.037829	-0.668403
10679		9.751259	0.174507	-0.861546	-0.009612	-0.011762	0.000430	-0.042234	-0.741684	0.037864	-0.668347
10680		9.773634	0.155894	-0.892926	-0.009836	-0.007204	-0.003480	-0.042267	-0.741720	0.037890	-0.668304
10681		9.751448	0.151060	-0.867619	-0.009738	-0.007422	-0.001335	-0.042302	-0.741752	0.037919	-0.668264
10682		9.804069	0.167887	-0.820144	-0.007587	-0.005519	-0.001255	-0.042320	-0.741783	0.037945	-0.668227
10683		9.774991	0.200009	-0.861728	-0.008552	-0.001651	0.002398	-0.042337	-0.741796	0.037983	-0.668209
10684		9.776824	0.219499	-0.833659	-0.013988	-0.005267	0.001222	-0.042370	-0.741824	0.038040	-0.668173
10685		9.754660	0.214498	-0.808214	-0.015203	-0.006917	-0.002130	-0.042427	-0.741854	0.038084	-0.668134
10686		9.726562	0.174909	-0.863552	-0.011905	-0.007261	-0.001224	-0.042460	-0.741889	0.038125	-0.668090
10687		9.775131	0.176488	-0.868366	-0.009655	-0.005579	0.001000	-0.042483	-0.741916	0.038158	-0.668057
10688		9.776931	0.196154	-0.840692	-0.009725	-0.009476	-0.001526	-0.042508	-0.741959	0.038191	-0.668005
10689		9.806280	0.140113	-0.804594	-0.007504	-0.003677	0.001080	-0.042524	-0.741979	0.038219	-0.667980
10690		9.805567	0.187962	-0.796074	-0.007391	-0.005955	0.003034	-0.042527	-0.742011	0.038260	-0.667943
10691		9.752820	0.171249	-0.844714	-0.007489	-0.005735	0.000889	-0.042545	-0.742038	0.038289	-0.667909
10692		9.754630	0.190683	-0.817084	-0.005196	-0.010230	0.002540	-0.042540	-0.742085	0.038322	-0.667856
10693		9.754559	0.190577	-0.817950	-0.007475	-0.007792	0.000698	-0.042557	-0.742119	0.038348	-0.667816
10694		9.752298	0.194944	-0.842418	-0.004205	-0.004022	0.001986	-0.042552	-0.742145	0.038375	-0.667786
10695		9.776914	0.171633	-0.849406	-0.004304	-0.003801	-0.000159	-0.042562	-0.742166	0.038388	-0.667760
10696		9.754110	0.214446	-0.814843	-0.007490	-0.005733	0.000890	-0.042572	-0.742197	0.038422	-0.667723
10697		9.805564	0.163456	-0.804845	-0.003143	-0.008107	0.000475	-0.042577	-0.742234	0.038437	-0.667682
10698		9.778626	0.191158	-0.823004	-0.005295	-0.010006	0.000395	-0.042580	-0.742279	0.038462	-0.667629
10699		9.754557	0.166599	-0.826441	-0.004346	-0.011812	-0.003069	-0.042601	-0.742328	0.038468	-0.667574
10700		9.780332	0.211141	-0.796703	-0.005394	-0.009785	-0.001749	-0.042612	-0.742373	0.038485	-0.667522
10701		9.754055	0.191127	-0.823815	-0.006541	-0.007537	-0.002574	-0.042638	-0.742407	0.038498	-0.667482
10702		9.802950	0.168854	-0.833216	-0.005422	-0.005668	-0.001366	-0.042648	-0.742438	0.038517	-0.667445
10703		9.754263	0.167461	-0.829730	-0.000962	-0.010320	0.000170	-0.042644	-0.742482	0.038521	-0.667396
10704		9.776246	0.172669	-0.856850	-0.005281	-0.012061	0.000204	-0.042648	-0.742535	0.038546	-0.667336
10705		9.749596	0.176304	-0.879811	-0.000849	-0.012598	0.002123	-0.042639	-0.742586	0.038559	-0.667279
10706		9.775698	0.196385	-0.854861	-0.003001	-0.014496	0.002044	-0.042627	-0.742647	0.038583	-0.667211
10707		9.751284	0.195828	-0.853874	-0.006628	-0.009370	-0.004909	-0.042662	-0.742687	0.038588	-0.667164
10708		9.753774	0.167640	-0.835432	-0.003129	-0.010159	0.000283	-0.042657	-0.742734	0.038606	-0.667111
10709		9.755266	0.211158	-0.803614	0.001217	-0.012533	-0.000135	-0.042648	-0.742785	0.038604	-0.667054
10710		9.777526	0.192351	-0.835703	0.000226	-0.018734	0.000418	-0.042630	-0.742861	0.038612	-0.666970
10711		9.755624	0.163199	-0.816276	-0.003031	-0.024555	-0.001059	-0.042635	-0.742953	0.038618	-0.666867
10712		9.728885	0.167120	-0.839986	-0.003188	-0.016105	-0.002436	-0.042639	-0.743020	0.038627	-0.666792
10713		9.782236	0.135813	-0.802435	0.001217	-0.012528	-0.000136	-0.042627	-0.743071	0.038622	-0.666736
10714		9.752633	0.192198	-0.840232	0.001015	-0.012085	-0.004424	-0.042623	-0.743126	0.038609	-0.666676
10715		9.801474	0.169999	-0.850182	0.001102	-0.010250	-0.002088	-0.042620	-0.743170	0.038599	-0.666627
10716		9.750481	0.173255	-0.870904	-0.004336	-0.013855	-0.003258	-0.042631	-0.743229	0.038608	-0.666560
10717		9.752615	0.169109	-0.848564	-0.003174	-0.018156	-0.002626	-0.042645	-0.743298	0.038611	-0.666482
10718		9.725539	0.196993	-0.867554	0.001259	-0.018692	-0.000711	-0.042627	-0.743375	0.038611	-0.666398
10719		9.728298	0.144882	-0.854690	0.002116	-0.022327	-0.006513	-0.042635	-0.743460	0.038584	-0.666304
10720		9.776716	0.146716	-0.861184	0.003439	-0.020901	-0.001018	-0.042610	-0.743544	0.038576	-0.666212
10721		9.805082	0.162513	-0.813455	0.005749	-0.027444	0.000436	-0.042575	-0.743646	0.038558	-0.666101
10722		9.802607	0.166837	-0.839424	0.001334	-0.014795	0.001817	-0.042549	-0.743709	0.038566	-0.666032
10723		9.819531	0.205059	-0.910285	-0.006490	-0.015744	-0.003329	-0.042576	-0.743770	0.038577	-0.665962
10724		9.766538	0.188837	-0.959088	-0.006573	-0.003415	-0.002179	-0.042594	-0.743794	0.038596	-0.665933
10725		9.726483	0.217638	-0.850501	-0.006457	-0.005690	-0.000227	-0.042611	-0.743821	0.038617	-0.665901
10726		9.706749	0.208095	-0.801136	-0.007577	-0.007555	-0.001433	-0.042629	-0.743858	0.038643	-0.665856
10727		9.745992	0.227657	-0.902243	-0.008554	-0.015804	-0.001070	-0.042654	-0.743919	0.038666	-0.665786
10728		9.748500	0.199196	-0.884348	-0.000832	-0.014634	0.001931	-0.042635	-0.743980	0.038682	-0.665717
10729		9.797273	0.176774	-0.894983	-0.009661	-0.019720	-0.002466	-0.042670	-0.744054	0.038708	-0.665631
10730		9.748813	0.151500	-0.897005	-0.003060	-0.020413	-0.000672	-0.042668	-0.744135	0.038722	-0.665540
10731		9.748014	0.199500	-0.889620	-0.008464	-0.013966	0.001268	-0.042687	-0.744189	0.038756	-0.665477
10732		9.745567	0.203929	-0.914731	-0.012810	-0.011594	0.001695	-0.042713	-0.744238	0.038811	-0.665417
10733		9.749830	0.219009	-0.863401	-0.017260	-0.009001	-0.000022	-0.042772	-0.744273	0.038872	-0.665369
10734		9.774366	0.195888	-0.871099	-0.022610	-0.010767	0.001151	-0.042836	-0.744318	0.038959	-0.665311
10735		9.749929	0.195325	-0.870354	-0.023678	-0.020840	-0.000825	-0.042917	-0.744392	0.039036	-0.665218
10736		9.748030	0.152174	-0.905354	-0.013983	-0.021440	-0.002427	-0.042961	-0.744474	0.039081	-0.665121
10737		9.750185	0.148027	-0.883570	-0.007485	-0.021914	-0.002781	-0.042988	-0.744555	0.039097	-0.665027
10738		9.747975	0.128966	-0.913797	-0.011963	-0.015213	-0.004109	-0.043030	-0.744617	0.039128	-0.664953
10739		9.771808	0.154153	-0.912992	-0.008661	-0.015561	-0.003215	-0.043065	-0.744677	0.039147	-0.664883
10740		9.776404	0.145530	-0.866634	-0.010841	-0.013348	-0.002903	-0.043100	-0.744732	0.039179	-0.664817
10741		9.751641	0.169105	-0.861414	-0.007499	-0.019854	-0.002589	-0.043129	-0.744806	0.039197	-0.664731
10742		9.770990	0.179321	-0.913553	-0.007578	-0.023732	-0.005119	-0.043158	-0.744898	0.039211	-0.664626
10743		9.719472	0.206870	-0.930609	-0.007578	-0.023729	-0.005119	-0.043192	-0.744985	0.039218	-0.664525
10744		9.747986	0.223176	-0.882931	-0.016229	-0.025141	-0.004833	-0.043251	-0.745079	0.039262	-0.664413
10745		9.747776	0.223457	-0.885179	-0.015937	-0.021705	0.001986	-0.043294	-0.745157	0.039324	-0.664320
10746		9.769163	0.252875	-0.908831	-0.016151	-0.021254	-0.002302	-0.043345	-0.745238	0.039377	-0.664223
10747		9.745318	0.204317	-0.917622	-0.020283	-0.019329	0.002421	-0.043405	-0.745306	0.039457	-0.664137
10748		9.772791	0.128668	-0.911641	-0.020391	-0.019101	0.000278	-0.043463	-0.745379	0.039534	-0.664047
10749		9.745596	0.156521	-0.930469	-0.017088	-0.019450	0.001168	-0.043514	-0.745449	0.039597	-0.663962
10750		9.770344	0.109255	-0.943758	-0.014828	-0.017781	0.003386	-0.043541	-0.745518	0.039666	-0.663878
10751		9.743185	0.136740	-0.962139	-0.013731	-0.011821	0.004981	-0.043566	-0.745562	0.039730	-0.663822
10752		9.791352	0.161879	-0.963317	-0.013731	-0.011819	0.004981	-0.043584	-0.745612	0.039800	-0.663762
10753		9.769064	0.180200	-0.933762	-0.013719	-0.013867	0.004786	-0.043611	-0.745663	0.039865	-0.663698
10754		9.765951	0.232419	-0.949232	-0.013892	-0.003392	0.003618	-0.043636	-0.745685	0.039930	-0.663668
10755		9.744058	0.226743	-0.923443	-0.016966	-0.005537	0.006821	-0.043669	-0.745708	0.040013	-0.663636
10756		9.765853	0.231689	-0.950413	-0.019202	-0.011297	0.004214	-0.043711	-0.745754	0.040099	-0.663576
10757		9.768211	0.226778	-0.927402	-0.023452	-0.007098	0.006993	-0.043766	-0.745781	0.040203	-0.663535
10758		9.746603	0.197072	-0.906464	-0.024589	-0.006902	0.005983	-0.043822	-0.745811	0.040313	-0.663491
10759		9.749276	0.168123	-0.887962	-0.025606	-0.008980	0.006920	-0.043887	-0.745843	0.040427	-0.663443
10760		9.724927	0.166969	-0.886347	-0.026756	-0.006733	0.006106	-0.043950	-0.745873	0.040545	-0.663399
10761		9.746729	0.171841	-0.913180	-0.022316	-0.007281	0.008005	-0.043999	-0.745900	0.040649	-0.663359
10762		9.722369	0.170760	-0.911649	-0.031173	-0.010271	0.003816	-0.044086	-0.745940	0.040774	-0.663300
10763		9.748735	0.190508	-0.886362	-0.029831	-0.008865	0.009310	-0.044156	-0.745971	0.040908	-0.663252
10764		9.722216	0.169983	-0.913425	-0.027871	-0.010620	0.004703	-0.044228	-0.746013	0.041025	-0.663193
10765		9.765222	0.228344	-0.957682	-0.025572	-0.015104	0.006329	-0.044294	-0.746066	0.041136	-0.663122
10766		9.767833	0.199591	-0.939795	-0.027969	-0.012433	0.002364	-0.044374	-0.746114	0.041245	-0.663056
10767		9.767763	0.199538	-0.940544	-0.031212	-0.004101	0.004414	-0.044469	-0.746129	0.041367	-0.663025
10768		9.694866	0.197163	-0.933822	-0.031213	-0.004097	0.004414	-0.044555	-0.746149	0.041494	-0.662989
10769		9.716346	0.226332	-0.956133	-0.037544	-0.014066	0.005936	-0.044664	-0.746196	0.041641	-0.662920
10770		9.767549	0.199105	-0.942847	-0.046332	-0.011118	0.004489	-0.044804	-0.746235	0.041819	-0.662855
10771		9.762277	0.232479	-0.986582	-0.046466	-0.006783	0.002746	-0.044956	-0.746256	0.041982	-0.662811
10772		9.716672	0.178634	-0.967832	-0.047628	-0.002479	0.002138	-0.045111	-0.746266	0.042154	-0.662778
10773		9.742840	0.222788	-0.937151	-0.044313	-0.004882	0.002823	-0.045255	-0.746281	0.042311	-0.662742
10774		9.740867	0.179813	-0.971053	-0.045429	-0.008770	0.001412	-0.045403	-0.746313	0.042474	-0.662685
10775		9.716469	0.179248	-0.969761	-0.048481	-0.014997	0.004210	-0.045558	-0.746360	0.042652	-0.662610
10776		9.690085	0.135639	-1.002425	-0.046500	-0.020833	-0.000805	-0.045716	-0.746432	0.042812	-0.662508
10777		9.735974	0.141994	-1.033004	-0.043895	-0.021918	0.007642	-0.045843	-0.746503	0.042989	-0.662408
10778		9.733559	0.122619	-1.063562	-0.048351	-0.019289	0.005954	-0.045985	-0.746568	0.043180	-0.662312
10779		9.781431	0.172022	-1.060254	-0.038802	-0.013552	0.002784	-0.046110	-0.746613	0.043321	-0.662244
10780		9.781566	0.148158	-1.066251	-0.035508	-0.011870	0.003871	-0.046213	-0.746657	0.043460	-0.662178
10781		9.783691	0.167289	-1.038530	-0.033364	-0.007941	0.004153	-0.046315	-0.746684	0.043588	-0.662132
10782		9.756591	0.195129	-1.055751	-0.032237	-0.006092	0.005366	-0.046401	-0.746709	0.043722	-0.662088
10783		9.761777	0.161277	-1.013527	-0.030988	-0.006524	0.008517	-0.046480	-0.746732	0.043858	-0.662048
10784		9.739644	0.179283	-0.983343	-0.033234	-0.012251	0.005886	-0.046567	-0.746777	0.043998	-0.661981
10785		9.764662	0.108014	-1.000669	-0.024764	0.003670	0.004880	-0.046632	-0.746768	0.044094	-0.661981
10786		9.788956	0.108545	-1.003004	-0.018231	-0.002982	0.003882	-0.046672	-0.746787	0.044174	-0.661951
10787		9.771858	0.117292	-0.924711	-0.011942	-0.005073	-0.000990	-0.046711	-0.746810	0.044209	-0.661920
10788		9.832225	0.143737	-1.051094	-0.013002	0.001034	0.000763	-0.046742	-0.746817	0.044260	-0.661907
10789		9.805259	0.171846	-1.067010	-0.011000	0.011329	-0.000476	-0.046780	-0.746786	0.044295	-0.661937
10790		9.759066	0.189608	-1.032205	-0.015355	0.015768	0.000191	-0.046824	-0.746743	0.044349	-0.661978
10791		9.718083	0.173695	-0.954790	-0.010878	0.009049	0.001460	-0.046851	-0.746720	0.044387	-0.662000
10792		9.762086	0.160683	-1.010645	-0.014017	0.019188	0.005897	-0.046871	-0.746666	0.044458	-0.662055
10793		9.767242	0.151000	-0.961108	-0.012292	0.019962	-0.002799	-0.046925	-0.746606	0.044488	-0.662117
10794		9.792249	0.104060	-0.971124	-0.007760	0.023239	0.001647	-0.046937	-0.746540	0.044522	-0.662188
10795		9.767692	0.151252	-0.956488	-0.005835	0.027636	-0.002350	-0.046965	-0.746456	0.044532	-0.662279
10796		9.718846	0.197893	-0.939385	-0.005824	0.025592	-0.002557	-0.046985	-0.746384	0.044543	-0.662359
10797		9.714684	0.160152	-0.994360	-0.005923	0.023784	-0.004906	-0.047021	-0.746313	0.044543	-0.662436
10798		9.744122	0.151580	-0.946592	-0.006865	0.027614	-0.001215	-0.047040	-0.746234	0.044563	-0.662523
10799		9.719823	0.174924	-0.936679	-0.002531	0.027271	-0.001465	-0.047052	-0.746152	0.044564	-0.662614
10800		9.741930	0.180840	-0.960139	-0.003778	0.027717	-0.004616	-0.047071	-0.746073	0.044561	-0.662702
10801		9.788889	0.139816	-0.995597	0.000545	0.029422	-0.004657	-0.047079	-0.745985	0.044534	-0.662802
10802		9.769757	0.129797	-0.942495	0.002677	0.035399	-0.004159	-0.047073	-0.745882	0.044510	-0.662920
10803		9.772478	0.125509	-0.915430	0.005789	0.031402	-0.007972	-0.047077	-0.745790	0.044457	-0.663027
10804		9.745754	0.154308	-0.929183	0.006842	0.027340	-0.009520	-0.047073	-0.745715	0.044400	-0.663115
10805		9.745719	0.179076	-0.921552	0.008997	0.029221	-0.009435	-0.047066	-0.745631	0.044329	-0.663215
10806		9.743842	0.160790	-0.947636	0.012325	0.024748	-0.008962	-0.047040	-0.745566	0.044256	-0.663295
10807		9.720343	0.112984	-0.952752	0.019858	0.024266	-0.010462	-0.046999	-0.745500	0.044148	-0.663379
10808		9.752057	0.100046	-0.880764	0.021962	0.034351	-0.009549	-0.046940	-0.745406	0.044039	-0.663496
10809		9.722973	0.133493	-0.918267	0.028607	0.027454	-0.008392	-0.046859	-0.745332	0.043908	-0.663594
10810		9.723205	0.134061	-0.915725	0.026452	0.025582	-0.008476	-0.046779	-0.745267	0.043789	-0.663680
10811		9.696401	0.162656	-0.930595	0.030863	0.012938	-0.009955	-0.046695	-0.745242	0.043649	-0.663724
10812		9.723195	0.159172	-0.907538	0.030929	0.018861	-0.007194	-0.046594	-0.745201	0.043520	-0.663785
10813		9.723353	0.159638	-0.905762	0.034126	0.018730	-0.008446	-0.046489	-0.745157	0.043369	-0.663852
10814		9.745755	0.141888	-0.934989	0.034034	0.016921	-0.010793	-0.046387	-0.745123	0.043217	-0.663906
10815		9.750590	0.133025	-0.885863	0.039517	0.014335	-0.010227	-0.046270	-0.745095	0.043044	-0.663957
10816		9.767925	0.148659	-0.958559	0.039661	0.007952	-0.008697	-0.046140	-0.745093	0.042882	-0.663980
10817		9.792287	0.149799	-0.960093	0.039765	0.007724	-0.006553	-0.046008	-0.745086	0.042722	-0.664007
10818		9.741099	0.177466	-0.973753	0.045925	0.012036	-0.012933	-0.045869	-0.745072	0.042523	-0.664045
10819		9.745577	0.192530	-0.920019	0.043937	0.015851	-0.008120	-0.045729	-0.745039	0.042343	-0.664103
10820		9.743686	0.173867	-0.947248	0.042710	0.014243	-0.011477	-0.045598	-0.745016	0.042161	-0.664149
10821		9.745499	0.217777	-0.912266	0.043698	0.020444	-0.012000	-0.045474	-0.744968	0.041968	-0.664223
10822		9.772941	0.166621	-0.898556	0.040645	0.014196	-0.009212	-0.045342	-0.744945	0.041801	-0.664269
10823		9.743734	0.199671	-0.938154	0.037474	0.010231	-0.008365	-0.045224	-0.744930	0.041641	-0.664304
10824		9.765794	0.205478	-0.963230	0.041897	0.011728	-0.006257	-0.045078	-0.744915	0.041480	-0.664341
10825		9.775571	0.163242	-0.871151	0.037311	0.018691	-0.009704	-0.044967	-0.744871	0.041315	-0.664408
10826		9.748739	0.191487	-0.886443	0.039698	0.016018	-0.005735	-0.044827	-0.744841	0.041163	-0.664460
10827		9.775838	0.163873	-0.868026	0.041864	0.015863	-0.005852	-0.044687	-0.744808	0.040999	-0.664518
10828		9.773270	0.192973	-0.885972	0.040567	0.010369	-0.011749	-0.044564	-0.744797	0.040823	-0.664548
10829		9.746378	0.221496	-0.901919	0.041685	0.012235	-0.010536	-0.044444	-0.744776	0.040646	-0.664591
10830		9.747553	0.150217	-0.914726	0.036304	0.014589	-0.008972	-0.044328	-0.744750	0.040494	-0.664637
10831		9.746943	0.198536	-0.904135	0.035389	0.012278	-0.005897	-0.044213	-0.744727	0.040352	-0.664680
10832		9.751660	0.189681	-0.855158	0.033103	0.014731	-0.007725	-0.044104	-0.744699	0.040216	-0.664726
10833		9.771827	0.176186	-0.908459	0.033118	0.012682	-0.007922	-0.044002	-0.744675	0.040072	-0.664769
10834		9.775826	0.215375	-0.849853	0.033055	0.020908	-0.007132	-0.043892	-0.744627	0.039936	-0.664838
10835		9.752035	0.191143	-0.850542	0.037317	0.016712	-0.009901	-0.043781	-0.744589	0.039771	-0.664898
10836		9.749851	0.196335	-0.873047	0.034149	0.012736	-0.009048	-0.043673	-0.744569	0.039625	-0.664936
10837		9.723713	0.176793	-0.898358	0.028712	0.009145	-0.010224	-0.043596	-0.744554	0.039491	-0.664965
10838		9.721481	0.182045	-0.921496	0.027695	0.007060	-0.009290	-0.043512	-0.744551	0.039367	-0.664981
10839		9.721149	0.206511	-0.916267	0.026764	0.006802	-0.006016	-0.043430	-0.744544	0.039256	-0.665001
10840		9.721188	0.206965	-0.915750	0.026678	0.004977	-0.008355	-0.043346	-0.744548	0.039139	-0.665010
10841		9.765268	0.218111	-0.967323	0.024597	0.006968	-0.005901	-0.043269	-0.744540	0.039034	-0.665030
10842		9.774458	0.200521	-0.871059	0.026543	0.009323	-0.010108	-0.043193	-0.744529	0.038911	-0.665054
10843		9.750219	0.200099	-0.868078	0.027982	0.008454	-0.002662	-0.043094	-0.744516	0.038808	-0.665081
10844		9.771901	0.229600	-0.888965	0.026779	0.004764	-0.006209	-0.043003	-0.744520	0.038699	-0.665089
10845		9.768190	0.191063	-0.945143	0.023428	0.011285	-0.006526	-0.042932	-0.744497	0.038594	-0.665125
10846		9.746678	0.162152	-0.922298	0.023377	0.017457	-0.005944	-0.042853	-0.744458	0.038496	-0.665179
10847		9.748702	0.181998	-0.892191	0.023377	0.017461	-0.005944	-0.042780	-0.744415	0.038391	-0.665239
10848		9.775003	0.202425	-0.864478	0.024746	0.012709	-0.001027	-0.042679	-0.744392	0.038307	-0.665276
10849		9.748951	0.181994	-0.889470	0.024729	0.014770	-0.000834	-0.042586	-0.744357	0.038219	-0.665326
10850		9.749052	0.181879	-0.888385	0.026946	0.008447	-0.001526	-0.042478	-0.744348	0.038126	-0.665348
10851		9.777155	0.221508	-0.832817	0.027029	0.010283	0.000811	-0.042369	-0.744329	0.038036	-0.665382
10852		9.752937	0.220453	-0.829697	0.021562	0.010787	0.000023	-0.042276	-0.744311	0.037967	-0.665411
10853		9.794888	0.235444	-0.904530	0.018144	0.013416	-0.002832	-0.042212	-0.744279	0.037893	-0.665455
10854		9.771104	0.210723	-0.905599	0.008445	0.014005	-0.001251	-0.042173	-0.744248	0.037863	-0.665494
10855		9.768557	0.239292	-0.923821	0.007346	0.010080	-0.002651	-0.042147	-0.744226	0.037825	-0.665523
10856		9.748808	0.229886	-0.873095	0.002948	0.006500	-0.004954	-0.042139	-0.744219	0.037801	-0.665533
10857		9.771326	0.211410	-0.903042	0.005314	0.005897	-0.000778	-0.042117	-0.744209	0.037780	-0.665546
10858		9.769521	0.192024	-0.931088	0.007415	0.001852	-0.003418	-0.042087	-0.744219	0.037746	-0.665539
10859		9.798344	0.184180	-0.885041	0.005214	0.006122	-0.002922	-0.042069	-0.744209	0.037714	-0.665553
10860		9.771863	0.187985	-0.906032	0.006312	0.010048	-0.001523	-0.042037	-0.744190	0.037691	-0.665577
10861		9.749882	0.182810	-0.879037	0.006312	0.010049	-0.001523	-0.042013	-0.744167	0.037662	-0.665606
10862		9.747303	0.211317	-0.897655	0.003147	0.006054	-0.000666	-0.041990	-0.744161	0.037653	-0.665615
10863		9.771675	0.212163	-0.899083	0.000964	0.008266	-0.000362	-0.041980	-0.744143	0.037646	-0.665636
10864		9.754163	0.197995	-0.824163	0.003077	0.014287	0.000101	-0.041956	-0.744110	0.037639	-0.665675
10865		9.728138	0.177725	-0.849256	0.003013	0.010395	-0.002427	-0.041947	-0.744085	0.037619	-0.665705
10866		9.752918	0.154791	-0.855158	0.000899	0.004375	-0.002889	-0.041940	-0.744085	0.037609	-0.665706
10867		9.725586	0.206513	-0.867556	0.006464	0.003653	0.000048	-0.041910	-0.744083	0.037587	-0.665711
10868		9.748088	0.187808	-0.898011	0.003218	-0.002178	-0.001431	-0.041888	-0.744104	0.037576	-0.665689
10869		9.750726	0.159572	-0.878606	0.000917	0.002317	-0.003081	-0.041890	-0.744106	0.037563	-0.665688
10870		9.772400	0.189023	-0.900007	0.001034	0.000035	-0.001128	-0.041876	-0.744120	0.037560	-0.665673
10871		9.772398	0.189179	-0.899996	-0.000099	0.000224	-0.002144	-0.041877	-0.744128	0.037552	-0.665665
10872		9.725579	0.207251	-0.867466	0.003218	-0.002178	-0.001431	-0.041856	-0.744150	0.037541	-0.665642
10873		9.770563	0.170003	-0.928594	0.000934	0.000259	-0.003272	-0.041859	-0.744158	0.037527	-0.665634
10874		9.745435	0.217351	-0.917279	0.003165	0.003997	-0.000857	-0.041836	-0.744159	0.037518	-0.665635
10875		9.726039	0.183808	-0.871357	0.000881	0.006434	-0.002698	-0.041833	-0.744147	0.037500	-0.665649
10876		9.769843	0.218480	-0.918261	-0.001186	0.006364	-0.000443	-0.041825	-0.744140	0.037507	-0.665658
10877		9.800886	0.206069	-0.847923	-0.002337	0.008612	-0.001268	-0.041830	-0.744120	0.037507	-0.665680
10878		9.776638	0.205348	-0.845080	-0.001186	0.006365	-0.000442	-0.041822	-0.744112	0.037513	-0.665688
10879		9.772647	0.190279	-0.897055	-0.004333	0.000308	0.000222	-0.041828	-0.744119	0.037525	-0.665679
10880		9.775317	0.161667	-0.877343	-0.000989	0.005917	0.003846	-0.041805	-0.744112	0.037547	-0.665687
10881		9.750225	0.208670	-0.865646	0.000980	0.006211	-0.000554	-0.041797	-0.744101	0.037542	-0.665701
10882		9.728207	0.203129	-0.838841	-0.005259	0.010120	0.006596	-0.041782	-0.744079	0.037587	-0.665724
10883		9.748159	0.212477	-0.888040	-0.003236	0.004237	0.001622	-0.041782	-0.744073	0.037604	-0.665730
10884		9.772521	0.213219	-0.889587	-0.008719	0.006794	0.001018	-0.041797	-0.744062	0.037641	-0.665739
10885		9.748265	0.212339	-0.886910	-0.009736	0.004701	0.001954	-0.041819	-0.744053	0.037679	-0.665745
10886		9.748711	0.188212	-0.891140	-0.010734	0.000549	0.002699	-0.041836	-0.744062	0.037730	-0.665731
10887		9.775240	0.184456	-0.869259	-0.009700	0.000584	0.001571	-0.041861	-0.744067	0.037770	-0.665722
10888		9.700552	0.162264	-0.891044	-0.005322	0.006228	0.004069	-0.041853	-0.744058	0.037807	-0.665730
10889		9.748809	0.187656	-0.890182	-0.007569	0.004548	0.001844	-0.041866	-0.744050	0.037836	-0.665736
10890		9.750613	0.207088	-0.861638	-0.001016	-0.002094	0.000935	-0.041853	-0.744071	0.037848	-0.665714
10891		9.750606	0.207163	-0.861699	-0.006598	0.000690	-0.001812	-0.041876	-0.744076	0.037863	-0.665705
10892		9.773115	0.188508	-0.892323	-0.012866	-0.003412	0.002425	-0.041901	-0.744098	0.037920	-0.665676
10893		9.750984	0.183205	-0.866637	-0.010798	-0.003341	0.000170	-0.041934	-0.744116	0.037959	-0.665652
10894		9.750948	0.183186	-0.867055	-0.010682	-0.005624	0.002122	-0.041952	-0.744146	0.038008	-0.665615
10895		9.748702	0.187588	-0.891372	-0.011832	-0.003375	0.001298	-0.041981	-0.744163	0.038050	-0.665591
10896		9.770774	0.192752	-0.917684	-0.011733	-0.003599	0.003442	-0.041998	-0.744186	0.038107	-0.665561
10897		9.726961	0.158159	-0.870543	-0.009764	-0.003304	-0.000957	-0.042029	-0.744204	0.038135	-0.665537
10898		9.749012	0.163441	-0.897067	-0.009532	-0.007871	0.002945	-0.042039	-0.744241	0.038184	-0.665492
10899		9.772844	0.188039	-0.895382	-0.009532	-0.007870	0.002945	-0.042056	-0.744274	0.038227	-0.665452
10900		9.772789	0.187941	-0.896002	-0.013981	-0.005274	0.001217	-0.042089	-0.744302	0.038283	-0.665415
10901		9.770117	0.216314	-0.915855	-0.013883	-0.005498	0.003361	-0.042122	-0.744326	0.038345	-0.665382
10902		9.747573	0.234842	-0.885817	-0.012849	-0.005462	0.002234	-0.042148	-0.744355	0.038401	-0.665345
10903		9.747940	0.210764	-0.890849	-0.017182	-0.005148	0.002457	-0.042194	-0.744377	0.038467	-0.665314
10904		9.750118	0.206446	-0.867379	-0.020680	-0.004347	-0.002736	-0.042265	-0.744401	0.038532	-0.665279
10905		9.748234	0.187225	-0.896553	-0.016097	-0.011286	0.000748	-0.042313	-0.744445	0.038590	-0.665224
10906		9.726069	0.181847	-0.871442	-0.013866	-0.007551	0.003168	-0.042339	-0.744480	0.038653	-0.665179
10907		9.750290	0.182611	-0.874543	-0.016080	-0.013340	0.000554	-0.042389	-0.744530	0.038712	-0.665116
10908		9.747906	0.187141	-0.900126	-0.013745	-0.021953	0.001809	-0.042418	-0.744613	0.038772	-0.665017
10909		9.796760	0.164765	-0.910744	-0.014930	-0.015585	0.001376	-0.042460	-0.744671	0.038830	-0.664947
10910		9.772321	0.163993	-0.910020	-0.013914	-0.013491	0.000443	-0.042495	-0.744726	0.038885	-0.664880
10911		9.747478	0.187404	-0.904696	-0.012963	-0.015285	-0.003024	-0.042544	-0.744783	0.038919	-0.664810
10912		9.767139	0.197646	-0.956164	-0.013980	-0.017375	-0.002090	-0.042587	-0.744852	0.038965	-0.664728
10913		9.769630	0.169568	-0.938434	-0.011931	-0.015247	-0.004152	-0.042635	-0.744910	0.038990	-0.664659
10914		9.747459	0.164501	-0.913593	-0.013948	-0.009371	0.000834	-0.042669	-0.744951	0.039046	-0.664607
10915		9.727523	0.154859	-0.865185	-0.008580	-0.021764	-0.003836	-0.042705	-0.745031	0.039064	-0.664514
10916		9.777785	0.176134	-0.843341	-0.007211	-0.026522	0.001076	-0.042712	-0.745131	0.039100	-0.664399
10917		9.773832	0.137263	-0.902773	-0.006195	-0.024428	0.000143	-0.042725	-0.745220	0.039125	-0.664297
10918		9.753867	0.127394	-0.855132	-0.006212	-0.022369	0.000338	-0.042731	-0.745307	0.039154	-0.664198
10919		9.773012	0.161411	-0.902710	-0.008464	-0.024037	-0.001886	-0.042758	-0.745394	0.039178	-0.664097
10920		9.790296	0.176121	-0.978246	-0.007533	-0.011666	-0.001842	-0.042777	-0.745445	0.039202	-0.664037
10921		9.765889	0.175565	-0.977063	-0.016217	-0.008976	-0.001187	-0.042832	-0.745480	0.039253	-0.663991
10922		9.742578	0.242479	-0.938167	-0.007635	-0.011436	-0.003987	-0.042859	-0.745530	0.039269	-0.663932
10923		9.767542	0.195731	-0.950870	-0.007499	-0.015773	-0.002234	-0.042883	-0.745590	0.039286	-0.663862
10924		9.738489	0.204302	-0.997974	-0.005333	-0.015930	-0.002350	-0.042895	-0.745656	0.039302	-0.663787
10925		9.774541	0.158436	-0.886870	-0.002978	-0.014490	0.002018	-0.042890	-0.745712	0.039320	-0.663722
10926		9.772101	0.162936	-0.912245	-0.003064	-0.016315	-0.000321	-0.042886	-0.745779	0.039336	-0.663646
10927		9.743044	0.171171	-0.959300	-0.002978	-0.014487	0.002018	-0.042881	-0.745836	0.039354	-0.663582
10928		9.749460	0.181409	-0.884332	-0.009598	-0.011728	0.000419	-0.042900	-0.745886	0.039394	-0.663522
10929		9.726946	0.200163	-0.855088	-0.003151	-0.018137	-0.002661	-0.042910	-0.745955	0.039395	-0.663444
10930		9.748403	0.229786	-0.877973	-0.009702	-0.011497	-0.001724	-0.042937	-0.746005	0.039427	-0.663384
10931		9.771457	0.163568	-0.919009	-0.008670	-0.011461	-0.002854	-0.042971	-0.746050	0.039448	-0.663330
10932		9.749764	0.134722	-0.898645	-0.007742	-0.011196	-0.006127	-0.043005	-0.746099	0.039457	-0.663272
10933		9.729992	0.125235	-0.850007	-0.005335	-0.015920	-0.002350	-0.043021	-0.746160	0.039465	-0.663202
10934		9.773788	0.136295	-0.903728	-0.003168	-0.016077	-0.002467	-0.043025	-0.746227	0.039473	-0.663126
10935		9.746592	0.164242	-0.922520	-0.004166	-0.020218	-0.001729	-0.043037	-0.746302	0.039484	-0.663040
10936		9.715110	0.177234	-0.993594	0.001252	-0.014568	-0.000361	-0.043018	-0.746364	0.039485	-0.662971
10937		9.746264	0.164728	-0.925891	-0.001177	-0.019880	-0.007263	-0.043039	-0.746439	0.039465	-0.662887
10938		9.770768	0.142186	-0.934616	0.003244	-0.018372	-0.005159	-0.043029	-0.746515	0.039442	-0.662803
10939		9.770224	0.166545	-0.931500	0.004329	-0.012405	-0.003557	-0.043015	-0.746566	0.039415	-0.662748
10940		9.767746	0.171368	-0.956587	0.003298	-0.012440	-0.002426	-0.042996	-0.746622	0.039401	-0.662687
10941		9.767635	0.171518	-0.957699	0.000084	-0.010263	-0.000981	-0.042990	-0.746665	0.039398	-0.662640
10942		9.762832	0.180780	-1.006224	-0.001086	-0.005964	-0.001601	-0.042985	-0.746698	0.039401	-0.662603
10943		9.769099	0.215058	-0.925656	-0.003197	0.000123	0.001249	-0.042987	-0.746705	0.039418	-0.662593
10944		9.764771	0.200337	-0.977983	-0.001241	0.000423	-0.003156	-0.042988	-0.746718	0.039416	-0.662579
10945		9.772252	0.162781	-0.910978	-0.003197	0.000123	0.001249	-0.042988	-0.746725	0.039430	-0.662570
10946		9.767483	0.171876	-0.959185	-0.005280	-0.009981	0.000387	-0.042991	-0.746770	0.039455	-0.662517
10947		9.767771	0.147931	-0.964879	-0.005264	-0.012033	0.000190	-0.043002	-0.746818	0.039475	-0.662462
10948		9.760964	0.137627	-1.042091	-0.001994	-0.008280	0.001477	-0.042989	-0.746858	0.039493	-0.662416
10949		9.743332	0.146848	-0.964120	-0.003075	-0.002158	0.003197	-0.042982	-0.746873	0.039515	-0.662398
10950		9.765262	0.152001	-0.990242	-0.002078	0.001982	0.002459	-0.042967	-0.746879	0.039535	-0.662391
10951		9.742186	0.218235	-0.950026	-0.005275	0.002105	0.003709	-0.042968	-0.746879	0.039568	-0.662389
10952		9.764542	0.199567	-0.980425	-0.007669	0.004775	-0.000263	-0.042984	-0.746875	0.039597	-0.662391
10953		9.715960	0.197628	-0.975878	-0.009348	-0.004192	0.007643	-0.042985	-0.746895	0.039656	-0.662365
10954		9.740263	0.197792	-0.978189	-0.015898	0.002443	0.008590	-0.043001	-0.746896	0.039746	-0.662357
10955		9.764620	0.198079	-0.979948	-0.017172	0.006973	0.005828	-0.043038	-0.746877	0.039824	-0.662371
10956		9.764700	0.197568	-0.979254	-0.014900	0.006585	0.007853	-0.043054	-0.746865	0.039907	-0.662379
10957		9.740492	0.196218	-0.976224	-0.015022	0.008869	0.005907	-0.043083	-0.746841	0.039978	-0.662401
10958		9.738212	0.200413	-0.999372	-0.019323	0.005085	0.005750	-0.043122	-0.746832	0.040068	-0.662402
10959		9.769275	0.211080	-0.924721	-0.022642	0.007495	0.005054	-0.043182	-0.746811	0.040163	-0.662417
10960		9.743073	0.190742	-0.950292	-0.027065	0.005997	0.002950	-0.043259	-0.746798	0.040268	-0.662420
10961		9.740803	0.195201	-0.973326	-0.026993	0.009875	0.005490	-0.043332	-0.746768	0.040375	-0.662443
10962		9.765619	0.171767	-0.978913	-0.029209	0.016199	0.006204	-0.043407	-0.746720	0.040499	-0.662483
10963		9.741486	0.170717	-0.975068	-0.022813	0.015950	0.003705	-0.043474	-0.746671	0.040588	-0.662529
10964		9.741649	0.170583	-0.973465	-0.024980	0.016116	0.003824	-0.043541	-0.746625	0.040689	-0.662571
10965		9.771157	0.137996	-0.931171	-0.023829	0.013870	0.004638	-0.043607	-0.746582	0.040783	-0.662609
10966		9.766612	0.147008	-0.977602	-0.022678	0.011623	0.005451	-0.043660	-0.746551	0.040883	-0.662634
10967		9.744410	0.165117	-0.945448	-0.025909	0.015861	0.007099	-0.043724	-0.746501	0.040992	-0.662679
10968		9.693229	0.191637	-0.958965	-0.029044	0.007780	0.007548	-0.043793	-0.746481	0.041121	-0.662689
10969		9.739623	0.197560	-0.986106	-0.031363	0.014341	0.006124	-0.043881	-0.746435	0.041247	-0.662728
10970		9.737828	0.177995	-1.013225	-0.031364	0.014347	0.006125	-0.043964	-0.746393	0.041378	-0.662761
10971		9.741863	0.216258	-0.954715	-0.029181	0.012134	0.005807	-0.044048	-0.746354	0.041497	-0.662792
10972		9.766677	0.192889	-0.960289	-0.032500	0.014556	0.005113	-0.044138	-0.746312	0.041628	-0.662826
10973		9.736707	0.134136	-1.042398	-0.032501	0.014562	0.005114	-0.044236	-0.746264	0.041755	-0.662864
10974		9.770418	0.115957	-0.947554	-0.030366	0.018511	0.005401	-0.044318	-0.746209	0.041879	-0.662913
10975		9.794528	0.140457	-0.943161	-0.023865	0.018020	0.005050	-0.044382	-0.746152	0.041974	-0.662967
10976		9.741473	0.147978	-0.984978	-0.027018	0.011992	0.005690	-0.044450	-0.746119	0.042088	-0.662992
10977		9.767497	0.191614	-0.952163	-0.024914	0.020048	0.006384	-0.044514	-0.746056	0.042192	-0.663053
10978		9.717130	0.170536	-0.974832	-0.022786	0.011903	0.003313	-0.044575	-0.746024	0.042284	-0.663079
10979		9.738923	0.199751	-0.994654	-0.028084	0.016080	0.007226	-0.044646	-0.745973	0.042401	-0.663124
10980		9.790010	0.196298	-0.973291	-0.032552	0.020765	0.005723	-0.044736	-0.745909	0.042533	-0.663181
10981		9.737070	0.203925	-1.014451	-0.032569	0.022827	0.005928	-0.044830	-0.745834	0.042660	-0.663251
10982		9.744128	0.189414	-0.940636	-0.034737	0.023002	0.006045	-0.044926	-0.745763	0.042801	-0.663316
10983		9.745069	0.141355	-0.948175	-0.031506	0.018765	0.004391	-0.045020	-0.745702	0.042918	-0.663370
10984		9.743367	0.122043	-0.974892	-0.025019	0.020321	0.004249	-0.045087	-0.745642	0.043020	-0.663427
10985		9.789915	0.128682	-1.001068	-0.021071	0.018881	-0.004758	-0.045174	-0.745584	0.043070	-0.663483
10986		9.772536	0.114101	-0.925684	-0.016620	0.016253	-0.003052	-0.045233	-0.745540	0.043117	-0.663525
10987		9.821345	0.115799	-0.927878	-0.014230	0.025653	0.004290	-0.045268	-0.745460	0.043178	-0.663609
10988		9.811550	0.206452	-1.005752	-0.013260	0.033917	0.003985	-0.045294	-0.745357	0.043238	-0.663718
10989		9.785424	0.210235	-1.023481	-0.017792	0.046842	0.003309	-0.045345	-0.745206	0.043303	-0.663880
10990		9.721807	0.188540	-0.917715	-0.017713	0.036567	0.002278	-0.045393	-0.745093	0.043371	-0.663999
10991		9.746449	0.189305	-0.916299	-0.022034	0.034857	0.002300	-0.045462	-0.744981	0.043448	-0.664115
10992		9.718419	0.174226	-0.963402	-0.020984	0.032841	0.000966	-0.045526	-0.744880	0.043523	-0.664219
10993		9.741618	0.132088	-0.995731	-0.016665	0.034565	0.000947	-0.045582	-0.744770	0.043578	-0.664335
10994		9.768104	0.152164	-0.965486	-0.018964	0.039099	-0.000668	-0.045645	-0.744649	0.043639	-0.664462
10995		9.751115	0.113278	-0.892563	-0.012623	0.047070	-0.002317	-0.045702	-0.744499	0.043671	-0.664624
10996		9.724261	0.165539	-0.900200	-0.011555	0.042997	-0.003859	-0.045748	-0.744367	0.043695	-0.664767
10997		9.726411	0.184958	-0.867300	-0.012496	0.042731	-0.000588	-0.045793	-0.744231	0.043729	-0.664914
10998		9.698552	0.170115	-0.913734	-0.013613	0.040886	-0.001811	-0.045841	-0.744106	0.043767	-0.665049
10999		9.701042	0.165454	-0.886112	-0.016690	0.036670	0.001154	-0.045896	-0.743989	0.043824	-0.665172
11000		9.721822	0.152043	-0.937111	-0.012354	0.036334	0.000934	-0.045929	-0.743878	0.043869	-0.665290
11001		9.721759	0.176213	-0.928727	-0.016864	0.035105	-0.003340	-0.045999	-0.743767	0.043909	-0.665408
11002		9.745970	0.201227	-0.922736	-0.010120	0.027930	-0.000009	-0.046026	-0.743685	0.043945	-0.665495
11003		9.791078	0.188712	-0.976294	-0.016660	0.032574	0.000738	-0.046082	-0.743581	0.043999	-0.665603
11004		9.767487	0.164282	-0.975863	-0.019033	0.035297	-0.003229	-0.046153	-0.743473	0.044052	-0.665716
11005		9.744777	0.206903	-0.936875	-0.020055	0.033208	-0.002312	-0.046232	-0.743367	0.044107	-0.665825
11006		9.794142	0.185132	-0.942298	-0.022334	0.035692	-0.004136	-0.046318	-0.743257	0.044167	-0.665938
11007		9.794901	0.161670	-0.943465	-0.027653	0.039895	-0.000232	-0.046418	-0.743126	0.044254	-0.666071
11008		9.771834	0.228062	-0.898426	-0.034341	0.050985	-0.001000	-0.046540	-0.742962	0.044364	-0.666238
11009		9.747518	0.251621	-0.886857	-0.045116	0.043616	-0.001304	-0.046710	-0.742815	0.044507	-0.666381
11010		9.718643	0.308986	-0.918575	-0.060248	0.038662	-0.001187	-0.046926	-0.742685	0.044705	-0.666497
11011		9.717017	0.314415	-0.937946	-0.064587	0.049113	0.002228	-0.047155	-0.742515	0.044924	-0.666656
11012		9.741411	0.339675	-0.929623	-0.072354	0.054256	-0.000186	-0.047414	-0.742330	0.045165	-0.666827
11013		9.768284	0.336377	-0.901677	-0.080158	0.063542	-0.002174	-0.047716	-0.742108	0.045418	-0.667036
11014		9.870195	0.330549	-0.854418	-0.093183	0.074739	0.001673	-0.048049	-0.741849	0.045733	-0.667278
11015		9.864971	0.346215	-0.917715	-0.120411	0.083362	0.002560	-0.048486	-0.741550	0.046136	-0.667551
11016		9.836661	0.404098	-0.944565	-0.132420	0.086644	0.002287	-0.048962	-0.741241	0.046584	-0.667829
11017		9.791904	0.441121	-0.872876	-0.147918	0.111034	0.003274	-0.049504	-0.740841	0.047082	-0.668197
11018		9.719039	0.487091	-0.845321	-0.160865	0.120064	0.009064	-0.050066	-0.740411	0.047646	-0.668592
11019		9.742217	0.517079	-0.852251	-0.187966	0.138495	0.017472	-0.050709	-0.739906	0.048325	-0.669053
11020		9.795908	0.508119	-0.792620	-0.211951	0.157132	0.022527	-0.051419	-0.739335	0.049106	-0.669574
11021		9.778329	0.490826	-0.702646	-0.229280	0.166756	0.028536	-0.052181	-0.738720	0.049961	-0.670130
11022		9.715292	0.460545	-0.562182	-0.240939	0.153020	0.032867	-0.052960	-0.738151	0.050879	-0.670627
11023		9.644435	0.474596	-0.513657	-0.256811	0.125155	0.035751	-0.053790	-0.737664	0.051860	-0.671021
11024		9.644409	0.430151	-0.535973	-0.281442	0.104326	0.039674	-0.054687	-0.737243	0.052947	-0.671326
11025		9.599721	0.415106	-0.474712	-0.296443	0.093172	0.043246	-0.055633	-0.736849	0.054098	-0.671589
11026		9.555722	0.351968	-0.426622	-0.311230	0.065174	0.047022	-0.056606	-0.736547	0.055320	-0.671740
11027		9.556110	0.348412	-0.420797	-0.333420	0.033107	0.055949	-0.057630	-0.736337	0.056651	-0.671771
11028		9.625440	0.316533	-0.504795	-0.353766	0.004105	0.056425	-0.058715	-0.736222	0.058063	-0.671683
11029		9.673903	0.249240	-0.548217	-0.362389	-0.013112	0.054625	-0.059843	-0.736156	0.059499	-0.671531
11030		9.751452	0.254314	-0.476913	-0.367742	-0.028677	0.053977	-0.060980	-0.736142	0.060956	-0.671312
11031		9.776160	0.227812	-0.486773	-0.366555	-0.038949	0.055922	-0.062110	-0.736156	0.062412	-0.671060
11032		9.800102	0.248614	-0.484949	-0.373264	-0.035238	0.054421	-0.063263	-0.736158	0.063890	-0.670811
11033		9.850761	0.216393	-0.473119	-0.370893	-0.035983	0.062948	-0.064385	-0.736154	0.065385	-0.670565
11034		9.829981	0.174997	-0.433203	-0.375315	-0.028914	0.066177	-0.065507	-0.736126	0.066910	-0.670336
11035		9.856286	0.141008	-0.419384	-0.375530	-0.021709	0.064945	-0.066643	-0.736066	0.068426	-0.670137
11036		9.834939	0.146022	-0.365293	-0.378953	-0.006302	0.068194	-0.067776	-0.735954	0.069966	-0.669987
11037		9.838297	0.127959	-0.317716	-0.380475	0.008033	0.062550	-0.068944	-0.735788	0.071481	-0.669890
11038		9.795923	0.118943	-0.212741	-0.384055	0.014042	0.058035	-0.070135	-0.735604	0.072996	-0.669806
11039		9.719210	0.172474	-0.239698	-0.385374	0.017427	0.055272	-0.071348	-0.735400	0.074498	-0.669736
11040		9.721352	0.272120	-0.156752	-0.405342	0.011461	0.046345	-0.072655	-0.735215	0.076042	-0.669625
11041		9.770684	0.223050	-0.170428	-0.429804	0.028943	0.040906	-0.074083	-0.734955	0.077640	-0.669571
11042		9.840513	0.259329	-0.209793	-0.443318	0.046956	0.037405	-0.075568	-0.734632	0.079270	-0.669568
11043		9.837136	0.317609	-0.235325	-0.465584	0.068268	0.034705	-0.077157	-0.734220	0.080954	-0.669637
11044		9.952591	0.394501	-0.311483	-0.492471	0.095486	0.026525	-0.078872	-0.733710	0.082697	-0.669783
11045		10.025680	0.442408	-0.287548	-0.519508	0.133651	0.017885	-0.080735	-0.733054	0.084482	-0.670058
11046		10.097549	0.475207	-0.289775	-0.543264	0.169416	0.009941	-0.082714	-0.732270	0.086313	-0.670440
11047		10.126798	0.454021	-0.200538	-0.581110	0.194469	0.004066	-0.084866	-0.731376	0.088237	-0.670896
11048		10.058638	0.514743	-0.049337	-0.596139	0.227225	-0.002279	-0.087096	-0.730366	0.090183	-0.671452
11049		10.065189	0.391374	0.038332	-0.638248	0.244205	-0.002745	-0.089493	-0.729265	0.092257	-0.672050
11050		9.913932	0.396069	-0.027637	-0.678129	0.250542	-0.002864	-0.092028	-0.728124	0.094469	-0.672638
11051		9.912137	0.366601	-0.063141	-0.727607	0.234563	0.001073	-0.094727	-0.726995	0.096861	-0.673144
11052		9.919114	0.400546	0.157998	-0.769127	0.260349	-0.005537	-0.097600	-0.725757	0.099366	-0.673704
11053		9.852188	0.346478	0.326309	-0.853013	0.247976	-0.008120	-0.100783	-0.724501	0.102144	-0.674172
11054		9.943280	0.354309	0.195543	-0.908596	0.234452	-0.013869	-0.104171	-0.723256	0.105101	-0.674539
11055		10.006455	0.363124	-0.064941	-1.007255	0.248151	-0.006121	-0.107896	-0.721884	0.108406	-0.674900
11056		10.091813	0.246814	-0.585887	-0.992148	0.297350	0.008512	-0.111529	-0.720336	0.111695	-0.675427
11057		9.965344	0.490728	-0.499661	-0.984436	0.327067	0.029594	-0.115078	-0.718656	0.115010	-0.676064
11058		9.801030	0.428165	-0.326905	-1.039335	0.262694	0.059133	-0.118682	-0.717135	0.118652	-0.676427
11059		10.037132	0.266770	-1.015261	-0.982912	0.258511	0.072847	-0.122041	-0.715627	0.122143	-0.676805
11060		10.207848	0.252860	-1.234327	-0.970952	0.370620	0.091045	-0.125342	-0.713725	0.125603	-0.677576
11061		10.076485	0.029557	-0.888485	-0.970450	0.422162	0.108858	-0.128614	-0.711613	0.129088	-0.678529
11062		9.958890	-0.045095	-0.986656	-0.928162	0.397451	0.115085	-0.131688	-0.709596	0.132466	-0.679400
11063		9.986955	-0.094724	-1.298178	-0.880092	0.363786	0.122545	-0.134549	-0.707697	0.135714	-0.680179
11064		10.067743	-0.203167	-1.205727	-0.844026	0.406515	0.123442	-0.137299	-0.705668	0.138820	-0.681110
11065		9.904527	-0.340789	-1.123967	-0.809718	0.417305	0.114803	-0.139967	-0.703609	0.141764	-0.682090
11066		9.914151	-0.493022	-1.329714	-0.747964	0.375634	0.118042	-0.142375	-0.701728	0.144533	-0.682948
11067		9.945007	-0.559236	-1.328163	-0.705915	0.410430	0.114439	-0.144678	-0.699739	0.147115	-0.683952
11068		9.709200	-0.719019	-1.322063	-0.656548	0.399482	0.117475	-0.146781	-0.697819	0.149547	-0.684938
11069		9.621145	-0.771715	-1.512346	-0.574286	0.347674	0.127191	-0.148535	-0.696120	0.151754	-0.685803
11070		9.727901	-0.721101	-1.731073	-0.511154	0.321220	0.142133	-0.149997	-0.694545	0.153815	-0.686621
11071		9.755158	-0.773647	-1.617556	-0.490478	0.319739	0.145298	-0.151381	-0.692979	0.155810	-0.687449
11072		9.732661	-0.828433	-1.506767	-0.468389	0.299883	0.144835	-0.152669	-0.691497	0.157743	-0.688216
11073		9.788106	-0.862756	-1.581790	-0.441575	0.253561	0.150849	-0.153816	-0.690178	0.159631	-0.688849
11074		9.938322	-0.778256	-1.615565	-0.442108	0.256744	0.158372	-0.154935	-0.688846	0.161546	-0.689485
11075		9.906494	-0.704726	-1.347775	-0.454108	0.277508	0.170422	-0.156078	-0.687417	0.163524	-0.690187
11076		9.873735	-0.567067	-1.096852	-0.505926	0.260233	0.175916	-0.157352	-0.685999	0.165716	-0.690785
11077		9.897845	-0.394709	-1.048332	-0.530141	0.267463	0.182968	-0.158686	-0.684524	0.168006	-0.691390
11078		9.745291	-0.190127	-0.871441	-0.564320	0.273848	0.181711	-0.160145	-0.682994	0.170410	-0.691977
11079		9.591485	-0.174778	-0.665128	-0.585982	0.267769	0.173873	-0.161697	-0.681473	0.172859	-0.692509
11080		9.431044	-0.226741	-0.817985	-0.579481	0.252928	0.163102	-0.163253	-0.680003	0.175264	-0.692984
11081		9.367219	-0.376367	-0.944632	-0.590969	0.246290	0.151900	-0.164878	-0.678543	0.177672	-0.693417
11082		9.382242	-0.556418	-0.742823	-0.622709	0.245045	0.139380	-0.166653	-0.677069	0.180150	-0.693794
11083		9.502676	-0.808819	-0.697766	-0.627786	0.260711	0.132543	-0.168482	-0.675522	0.182609	-0.694217
11084		9.575161	-0.830412	-0.653000	-0.614571	0.261604	0.119705	-0.170309	-0.673997	0.184976	-0.694627
11085		9.627519	-0.810752	-0.670708	-0.633966	0.259739	0.106097	-0.172266	-0.672455	0.187364	-0.694999
11086		9.652978	-0.707877	-0.635841	-0.652142	0.252408	0.089704	-0.174312	-0.670938	0.189764	-0.695304
11087		9.557435	-0.676427	-0.629411	-0.689570	0.254760	0.072121	-0.176546	-0.669387	0.192230	-0.695558
11088		9.419578	-0.694882	-0.723120	-0.694019	0.230958	0.051010	-0.178845	-0.667923	0.194660	-0.695701
11089		9.334297	-0.682454	-0.855283	-0.687196	0.226124	0.029381	-0.181192	-0.666485	0.196997	-0.695816
11090		9.189182	-0.709794	-0.844028	-0.670832	0.232376	-0.004240	-0.183607	-0.665068	0.199155	-0.695924
11091		9.139739	-0.803757	-0.815224	-0.656517	0.221172	-0.039008	-0.186107	-0.663725	0.201155	-0.695967
11092		9.195885	-0.966083	-0.891317	-0.645486	0.225359	-0.076928	-0.188685	-0.662406	0.202985	-0.695998
11093		9.237406	-1.112730	-0.778707	-0.640128	0.238947	-0.115440	-0.191397	-0.661073	0.204655	-0.696036
11094		9.180936	-1.236421	-0.661360	-0.639319	0.230357	-0.150129	-0.194214	-0.659794	0.206213	-0.696010
11095		9.130094	-1.260810	-0.595294	-0.622593	0.206091	-0.180302	-0.197064	-0.658631	0.207633	-0.695887
11096		9.165584	-1.180363	-0.659482	-0.623410	0.197646	-0.202607	-0.199980	-0.657516	0.208987	-0.695705
11097		9.183860	-1.090921	-0.533705	-0.627886	0.188493	-0.219676	-0.202994	-0.656422	0.210308	-0.695467
11098		9.255171	-0.990592	-0.456227	-0.655396	0.186253	-0.235510	-0.206114	-0.655328	0.211672	-0.695167
11099		9.191139	-0.918918	-0.510067	-0.671471	0.169530	-0.249035	-0.209334	-0.654259	0.213068	-0.694786
11100		9.180829	-0.833426	-0.614064	-0.684667	0.136584	-0.270532	-0.212618	-0.653324	0.214462	-0.694238
11101		9.161146	-0.822004	-0.625337	-0.671591	0.127706	-0.297195	-0.215956	-0.652442	0.215733	-0.693644
11102		9.167227	-0.861168	-0.648003	-0.662838	0.109114	-0.325351	-0.219331	-0.651662	0.216893	-0.692956
11103		9.225272	-1.003691	-0.694616	-0.630992	0.072986	-0.347366	-0.222638	-0.651060	0.217904	-0.692150
11104		9.239354	-1.112211	-0.788099	-0.601619	0.033648	-0.361627	-0.225864	-0.650630	0.218803	-0.691224
11105		9.271662	-1.299759	-1.053987	-0.547693	-0.031973	-0.367327	-0.228872	-0.650486	0.219563	-0.690129
11106		9.304463	-1.399719	-1.087949	-0.531773	-0.056690	-0.366661	-0.231795	-0.650442	0.220292	-0.688961
11107		9.286001	-1.533036	-1.094188	-0.527696	-0.087390	-0.355043	-0.234640	-0.650484	0.221079	-0.687705
11108		9.441522	-1.498954	-0.905503	-0.530364	-0.122999	-0.343378	-0.237406	-0.650635	0.221946	-0.686333
11109		9.725769	-1.297124	-0.818786	-0.523416	-0.136744	-0.326419	-0.240074	-0.650820	0.222858	-0.684932
11110		10.016235	-0.917874	-0.599702	-0.561234	-0.141128	-0.298563	-0.242759	-0.650938	0.223992	-0.683502
11111		10.352793	-0.729435	-0.314294	-0.644413	-0.129758	-0.254835	-0.245568	-0.650862	0.225543	-0.682059
11112		10.615391	-0.525640	0.224958	-0.733164	-0.130317	-0.185689	-0.248419	-0.650600	0.227619	-0.680586
11113		10.957581	-0.387124	0.720103	-0.787221	-0.169305	-0.115181	-0.251152	-0.650323	0.230155	-0.678994
11114		11.235138	-0.270270	0.863338	-0.846029	-0.129892	-0.052802	-0.253898	-0.649757	0.233042	-0.677527
11115		11.087574	-0.486627	0.658382	-0.932383	-0.160899	-0.010692	-0.256737	-0.649131	0.236395	-0.675894
11116		11.035145	-0.579755	0.433105	-0.965122	-0.283968	0.010522	-0.259469	-0.648842	0.240068	-0.673830
11117		10.740513	-0.797633	0.192526	-1.057005	-0.307214	0.012325	-0.262454	-0.648494	0.244084	-0.671563
11118		10.101092	-1.114516	0.277256	-1.071442	-0.369591	0.001440	-0.265447	-0.648328	0.248179	-0.669041
11119		10.030878	-1.281642	-0.063294	-1.074112	-0.412734	0.000129	-0.268390	-0.648287	0.252328	-0.666349
11120		9.790689	-1.499233	-0.769356	-1.041356	-0.389557	0.010035	-0.271218	-0.648177	0.256358	-0.663768
11121		9.688519	-1.865387	-0.699230	-0.968552	-0.470175	0.011708	-0.273698	-0.648419	0.260248	-0.660994
11122		9.785554	-2.296124	-0.666723	-0.876878	-0.532360	0.007508	-0.275820	-0.648980	0.263886	-0.658113
11123		9.956623	-2.388675	-0.770985	-0.738254	-0.572698	0.016431	-0.277406	-0.649844	0.267144	-0.655274
11124		10.120316	-2.100583	-0.462708	-0.636874	-0.531820	0.035267	-0.278653	-0.650676	0.270063	-0.652717
11125		10.232678	-1.598564	-0.111403	-0.606965	-0.467767	0.058494	-0.279797	-0.651302	0.272878	-0.650428
11126		10.649780	-1.024204	0.585381	-0.601783	-0.400928	0.081526	-0.280934	-0.651675	0.275653	-0.648391
11127		10.994119	-0.241404	1.330768	-0.612327	-0.307203	0.101698	-0.282150	-0.651695	0.278408	-0.646664
11128		11.184796	0.631876	1.750145	-0.661570	-0.236887	0.111607	-0.283586	-0.651390	0.281253	-0.645109
11129		10.975632	1.347182	1.913401	-0.724014	-0.162222	0.112910	-0.285307	-0.650745	0.284210	-0.643705
11130		10.459141	1.813112	1.932530	-0.795591	-0.116691	0.100250	-0.287363	-0.649853	0.287287	-0.642324
11131		9.931222	1.910829	1.726160	-0.879281	-0.075825	0.073276	-0.289822	-0.648732	0.290492	-0.640909
11132		9.526112	1.732654	1.562028	-0.982411	-0.054019	0.039105	-0.292751	-0.647420	0.293879	-0.639358
11133		9.413492	1.421259	1.423311	-1.094844	-0.025040	0.002375	-0.296189	-0.645882	0.297467	-0.637669
11134		9.598621	1.091955	1.131026	-1.204506	0.000525	-0.037214	-0.300137	-0.644129	0.301231	-0.635827
11135		9.948349	0.892441	0.966218	-1.294513	0.021027	-0.073032	-0.304502	-0.642200	0.305131	-0.633840
11136		10.371910	0.762143	0.760786	-1.352504	0.043858	-0.110807	-0.309196	-0.640133	0.309045	-0.631758
11137		10.567318	0.889815	0.701026	-1.341852	0.027591	-0.151240	-0.313947	-0.638165	0.312808	-0.629550
11138		10.884564	1.067681	0.619361	-1.327985	-0.020017	-0.206399	-0.318750	-0.636421	0.316404	-0.627100
11139		10.916733	1.017297	0.385430	-1.317176	-0.042103	-0.248099	-0.323603	-0.634799	0.319855	-0.624503
11140		10.654170	1.017922	0.166068	-1.319138	-0.061641	-0.266621	-0.328480	-0.633234	0.323265	-0.621784
11141		10.199058	0.919676	-0.088562	-1.346265	-0.090615	-0.258773	-0.333355	-0.631674	0.326819	-0.618912
11142		9.675078	0.753182	-0.421924	-1.354542	-0.090213	-0.231430	-0.338157	-0.630027	0.330466	-0.616042
11143		9.459551	0.725224	-0.566788	-1.385990	-0.071493	-0.196014	-0.342955	-0.628184	0.334279	-0.613208
11144		9.369602	0.644328	-0.757752	-1.416032	-0.019009	-0.162818	-0.347811	-0.626041	0.338186	-0.610516
11145		9.424488	0.494651	-0.819869	-1.418714	0.038695	-0.135769	-0.352664	-0.623641	0.342076	-0.608016
11146		9.616789	0.491353	-0.700792	-1.401043	0.103580	-0.141580	-0.357570	-0.621049	0.345765	-0.605713
11147		9.854941	0.375680	-0.412344	-1.380407	0.156182	-0.152049	-0.362512	-0.618321	0.349254	-0.603561
11148		9.864299	0.091990	-0.410873	-1.357104	0.163610	-0.171618	-0.367440	-0.615614	0.352579	-0.601411
11149		9.843724	-0.095552	-0.326997	-1.318974	0.157944	-0.198186	-0.372305	-0.613012	0.355702	-0.599233
11150		9.633487	-0.305401	-0.357345	-1.285317	0.139290	-0.215376	-0.377076	-0.610531	0.358685	-0.597002
11151		9.416827	-0.318735	-0.371842	-1.230341	0.114291	-0.226341	-0.381653	-0.608225	0.361502	-0.594743
11152		9.096966	-0.276208	-0.312269	-1.218338	0.105230	-0.231226	-0.386182	-0.605952	0.364268	-0.592448
11153		8.846198	-0.088587	-0.279902	-1.208022	0.107568	-0.227163	-0.390653	-0.603665	0.366999	-0.590162
11154		8.747472	0.022192	-0.310652	-1.208024	0.105036	-0.218691	-0.395082	-0.601345	0.369744	-0.587863
11155		8.742384	0.175702	-0.296257	-1.200740	0.117421	-0.204982	-0.399453	-0.598959	0.372475	-0.585618
11156		8.818013	0.267736	-0.381855	-1.221420	0.099242	-0.191929	-0.403801	-0.596537	0.375324	-0.583284
11157		8.920534	0.307871	-0.472663	-1.202914	0.092832	-0.172696	-0.408006	-0.594118	0.378178	-0.580979
11158		9.001480	0.356534	-0.617954	-1.197909	0.096420	-0.159673	-0.412153	-0.591651	0.381032	-0.578700
11159		8.943749	0.350082	-0.856042	-1.211698	0.102393	-0.155777	-0.416321	-0.589111	0.383915	-0.576398
11160		8.970503	0.223986	-1.179941	-1.186997	0.086472	-0.146091	-0.420347	-0.586628	0.386770	-0.574095
11161		9.112252	0.055725	-1.333292	-1.170757	0.084186	-0.134405	-0.424269	-0.584147	0.389606	-0.571818
11162		9.169299	-0.109477	-1.293436	-1.130711	0.103805	-0.130101	-0.428088	-0.581664	0.392283	-0.569668
11163		9.196730	-0.300206	-1.152503	-1.071743	0.082445	-0.132424	-0.431687	-0.579361	0.394818	-0.567544
11164		9.091986	-0.333771	-1.372557	-1.055707	-0.003129	-0.130716	-0.435064	-0.577316	0.397476	-0.565188
11165		9.057397	-0.354845	-1.572680	-1.012115	-0.085358	-0.120941	-0.438116	-0.575574	0.400204	-0.562678
11166		8.859572	-0.088608	-1.380246	-0.976252	-0.173431	-0.096988	-0.440819	-0.574099	0.403071	-0.560020
11167		8.573859	0.124712	-1.738718	-1.027208	-0.304580	-0.059219	-0.443288	-0.572802	0.406463	-0.556939
11168		8.421848	0.213704	-2.266304	-1.037919	-0.422308	-0.021729	-0.445442	-0.571721	0.410230	-0.553560
11169		8.258839	0.348042	-2.729499	-1.073585	-0.439742	0.024818	-0.447509	-0.570505	0.414260	-0.550136
11170		7.887455	0.403167	-2.937227	-1.085331	-0.434954	0.064898	-0.449495	-0.569145	0.418409	-0.546775
11171		7.879415	0.639869	-2.755726	-1.086715	-0.473610	0.071599	-0.451366	-0.567863	0.422655	-0.543289
11172		8.243613	0.703232	-2.475508	-1.083731	-0.448384	0.063004	-0.453295	-0.566509	0.426794	-0.539850
11173		8.854966	0.750342	-2.156983	-1.063251	-0.389915	0.047535	-0.455309	-0.565060	0.430696	-0.536565
11174		9.531440	0.454077	-1.789401	-1.023507	-0.333019	0.035235	-0.457356	-0.563548	0.434311	-0.533492
11175		10.117215	0.069828	-1.446137	-0.917770	-0.286546	0.023988	-0.459218	-0.562170	0.437500	-0.530733
11176		10.464393	-0.403686	-1.107902	-0.836535	-0.243711	0.003904	-0.460997	-0.560886	0.440304	-0.528224
11177		10.539489	-1.231212	-0.941193	-0.763611	-0.180200	0.002360	-0.462697	-0.559602	0.442767	-0.526036
11178		10.431052	-1.980768	-0.399697	-0.620390	-0.102096	-0.003563	-0.464185	-0.558441	0.444645	-0.524373
11179		10.462621	-2.278712	-0.241958	-0.502458	-0.058015	-0.003575	-0.465431	-0.557440	0.446115	-0.523083
11180		11.044718	-2.050251	-0.433646	-0.367202	-0.072841	-0.010475	-0.466295	-0.556802	0.447232	-0.522038
11181		12.290841	-1.466056	0.554270	-0.354151	0.127094	-0.070597	-0.467709	-0.555795	0.447700	-0.521446
11182		12.790793	-1.313511	2.538584	-0.320216	0.258201	-0.162914	-0.469567	-0.554706	0.447513	-0.521095
11183		13.039121	-0.971778	2.792903	-0.358633	-0.142166	-0.230343	-0.470836	-0.554741	0.448152	-0.519361
11184		13.237096	0.074212	1.323337	-0.440320	-0.543407	-0.277092	-0.471589	-0.555736	0.449777	-0.516199
11185		12.101660	1.535739	1.114053	-0.546018	-0.640845	-0.275230	-0.472400	-0.556729	0.451905	-0.512517
11186		10.918554	2.770604	1.020271	-0.738993	-0.610292	-0.205727	-0.473622	-0.557014	0.454642	-0.508644
11187		9.691000	3.970558	0.264226	-0.907611	-0.462010	-0.085684	-0.475301	-0.556239	0.457807	-0.505075
11188		9.456848	4.245937	0.103996	-1.198846	-0.374191	-0.003911	-0.477755	-0.554335	0.461722	-0.501274
11189		10.384505	3.343126	0.262919	-1.406421	-0.257050	0.015772	-0.480961	-0.551566	0.465933	-0.497350
11190		11.170582	1.870091	0.517517	-1.471077	-0.135160	-0.037535	-0.484738	-0.548414	0.469844	-0.493475
11191		11.299303	0.364046	0.491822	-1.399369	-0.075736	-0.152321	-0.488719	-0.545523	0.473097	-0.489629
11192		10.970389	-0.735301	0.260885	-1.260624	-0.035995	-0.272848	-0.492706	-0.543119	0.475552	-0.485914
11193		10.736672	-1.666739	0.012445	-1.073579	0.023992	-0.360008	-0.496524	-0.541214	0.477152	-0.482573
11194		10.672515	-2.466603	0.097618	-0.923900	0.064063	-0.376462	-0.500067	-0.539603	0.478225	-0.479647
11195		10.903613	-3.191854	-0.092844	-0.753941	0.033937	-0.328279	-0.502949	-0.538378	0.479087	-0.477144
11196		11.196255	-3.350432	-0.361613	-0.503474	0.025114	-0.230303	-0.504900	-0.537574	0.479623	-0.475450
11197		10.991137	-2.745276	-0.590245	-0.308543	0.003106	-0.127624	-0.506016	-0.537085	0.480028	-0.474405
11198		10.532166	-1.765271	-0.550860	-0.213266	-0.037823	-0.038985	-0.506572	-0.536729	0.480539	-0.473696
11199		10.359562	-1.065267	-0.573177	-0.189055	-0.090628	0.043282	-0.506729	-0.536377	0.481354	-0.473101
11200		10.302885	-0.307464	-0.294196	-0.180281	-0.018074	0.110196	-0.506875	-0.535712	0.482143	-0.472894
11201		9.917347	0.282636	-0.163349	-0.212300	0.014995	0.152064	-0.507072	-0.534789	0.483049	-0.472803
11202		9.524717	0.668958	-0.358781	-0.232824	0.004242	0.164446	-0.507274	-0.533808	0.484055	-0.472665
11203		9.046888	0.866749	-0.343117	-0.267472	0.035130	0.165299	-0.507630	-0.532663	0.485077	-0.472529
11204		8.591931	0.729616	-0.394690	-0.289269	0.057581	0.147911	-0.508145	-0.531443	0.486039	-0.472358
11205		8.367850	0.406734	-0.334626	-0.302481	0.091223	0.132225	-0.508804	-0.530146	0.486915	-0.472205
11206		8.350463	-0.088710	-0.408452	-0.306535	0.107141	0.124600	-0.509536	-0.528814	0.487730	-0.472068
11207		8.260863	-0.607280	-0.559102	-0.239154	0.129289	0.135701	-0.510108	-0.527576	0.488367	-0.472177
11208		8.298744	-0.829417	-0.638330	-0.150846	0.139333	0.141078	-0.510467	-0.526525	0.488773	-0.472541
11209		8.333379	-1.005196	-0.687126	-0.080823	0.184787	0.136585	-0.510753	-0.525557	0.488895	-0.473184
11210		8.291271	-1.142625	-0.656633	-0.004822	0.213777	0.141696	-0.510905	-0.524699	0.488768	-0.474103
11211		8.271548	-1.224449	-0.692479	0.041149	0.234795	0.128191	-0.511011	-0.523941	0.488450	-0.475153
11212		8.394531	-1.193400	-0.813301	0.101752	0.250500	0.123076	-0.511019	-0.523310	0.487924	-0.476379
11213		8.468810	-1.139508	-0.955325	0.155057	0.264021	0.121232	-0.510913	-0.522788	0.487239	-0.477764
11214		8.514558	-0.990908	-1.089592	0.195104	0.265869	0.128313	-0.510699	-0.522346	0.486461	-0.479267
11215		8.566152	-0.857931	-1.371924	0.220626	0.257661	0.135410	-0.510370	-0.521972	0.485670	-0.480825
11216		8.559554	-0.620856	-1.452692	0.203287	0.274056	0.137170	-0.510129	-0.521506	0.484872	-0.482389
11217		8.369846	-0.530709	-1.672838	0.183749	0.243825	0.129224	-0.509874	-0.521083	0.484185	-0.483803
11218		8.492918	-0.354763	-1.832263	0.176588	0.219129	0.101790	-0.509658	-0.520764	0.483493	-0.485065
11219		8.485340	-0.253791	-1.633262	0.099407	0.264318	0.072604	-0.509808	-0.520203	0.482811	-0.486188
11220		8.261505	-0.230881	-1.446213	0.012667	0.259682	0.029013	-0.510292	-0.519527	0.482226	-0.486983
11221		8.137545	-0.166164	-1.379469	-0.037756	0.194319	-0.030164	-0.510888	-0.519024	0.481782	-0.487333
11222		8.082061	0.006160	-1.332898	-0.052495	0.148975	-0.094838	-0.511592	-0.518744	0.481304	-0.487365
11223		7.887255	0.058481	-1.353881	-0.068473	0.076686	-0.162414	-0.512325	-0.518760	0.480880	-0.486996
11224		7.966688	-0.007433	-1.943202	0.026967	-0.070274	-0.230423	-0.512655	-0.519546	0.480393	-0.486292
11225		8.490113	-0.089848	-2.645517	0.165630	-0.115024	-0.270916	-0.512610	-0.520897	0.479583	-0.485693
11226		8.983822	-0.562476	-2.171468	0.200702	-0.008874	-0.262404	-0.512713	-0.522050	0.478430	-0.485483
11227		9.551980	-1.376575	-1.169327	0.132826	0.022695	-0.234572	-0.512980	-0.522887	0.477452	-0.485264
11228		10.538582	-2.154705	-0.756895	-0.044654	0.055667	-0.157110	-0.513601	-0.523001	0.477018	-0.484911
11229		11.238117	-2.239114	-0.876601	-0.090899	0.058922	-0.061582	-0.514093	-0.522770	0.476958	-0.484697
11230		11.507832	-0.940340	-0.954179	-0.172286	0.037607	0.028551	-0.514535	-0.522172	0.477375	-0.484462
11231		11.240913	0.450987	-1.220221	-0.229782	-0.030377	0.096986	-0.514778	-0.521439	0.478300	-0.484080
11232		10.701850	1.542398	-2.107821	-0.205246	-0.127991	0.132056	-0.514659	-0.520927	0.479486	-0.483584
11233		10.356543	1.922799	-3.131972	-0.228456	-0.092332	0.124158	-0.514686	-0.520288	0.480634	-0.483106
11234		10.615677	1.006064	-2.785358	-0.375826	0.164678	0.086852	-0.515800	-0.518709	0.481381	-0.482870
11235		11.384808	0.105592	-0.194588	-0.443340	0.299939	0.084563	-0.517390	-0.516626	0.481963	-0.482822
11236		12.322313	-0.211190	0.003852	-0.629332	-0.122028	0.138250	-0.518345	-0.514970	0.484180	-0.481346
11237		14.437463	-0.424607	-2.246028	-0.753488	-0.477653	0.282237	-0.518394	-0.513528	0.487983	-0.478988
11238		14.677209	-0.378123	-0.166194	-0.799380	-0.142976	0.484743	-0.518856	-0.510652	0.491553	-0.477910
11239		12.458695	-0.404368	3.115553	-0.993393	-0.246845	0.627844	-0.519171	-0.507174	0.496230	-0.476436
11240		11.812495	-0.116723	1.909004	-1.074749	-0.481404	0.678792	-0.518996	-0.503911	0.501788	-0.474264
11241		11.511613	0.222267	1.215182	-1.101236	-0.337309	0.679923	-0.519194	-0.500204	0.507044	-0.472378
11242		10.254030	0.022919	1.814684	-1.018845	-0.389197	0.543806	-0.519390	-0.497148	0.511848	-0.470201
11243		10.219110	-1.350142	0.413487	-0.816729	-0.596070	0.349104	-0.519016	-0.495589	0.516203	-0.467491
11244		11.624035	-2.484780	0.285163	-0.571875	-0.414013	0.189159	-0.518894	-0.494619	0.519088	-0.465455
11245		11.758506	-3.029737	1.095905	-0.329714	-0.218775	0.087714	-0.518896	-0.494068	0.520667	-0.464273
11246		12.391554	-2.999119	1.151451	-0.230980	-0.217459	0.069375	-0.518721	-0.493815	0.521945	-0.463301
11247		12.674409	-2.404522	1.355507	-0.127747	-0.041199	0.142872	-0.518546	-0.493226	0.522739	-0.463230
11248		12.023389	-1.032332	1.542452	-0.150963	-0.019044	0.222965	-0.518308	-0.492321	0.523713	-0.463360
11249		11.607354	0.147044	1.062883	-0.233360	-0.042551	0.293169	-0.518021	-0.491076	0.525132	-0.463394
11250		11.048222	1.187836	0.816668	-0.373749	0.058738	0.313706	-0.518302	-0.489169	0.526655	-0.463370
11251		10.367771	2.099797	0.932367	-0.500745	0.068379	0.272230	-0.518993	-0.487006	0.528363	-0.462930
11252		10.230209	2.763664	0.822276	-0.656697	0.025393	0.172146	-0.520203	-0.484789	0.530272	-0.461714
11253		10.626333	2.848156	0.694769	-0.773399	0.008316	0.035408	-0.521955	-0.482649	0.532169	-0.459792
11254		10.553748	2.326257	0.444061	-0.832996	0.030144	-0.076829	-0.524183	-0.480581	0.533848	-0.457472
11255		10.256507	1.559846	0.353346	-0.855119	-0.008567	-0.142865	-0.526495	-0.478707	0.535521	-0.454819
11256		9.789709	1.014742	0.290242	-0.894948	-0.020954	-0.173339	-0.528946	-0.476825	0.537217	-0.451942
11257		9.081266	0.456663	0.160969	-0.946999	-0.016558	-0.149466	-0.531449	-0.474723	0.539082	-0.448988
11258		8.375220	0.031611	-0.020712	-0.995701	0.017806	-0.110940	-0.534069	-0.472298	0.541034	-0.446080
11259		7.837844	-0.067088	0.001518	-1.001036	0.114983	-0.076382	-0.536849	-0.469533	0.542829	-0.443473
11260		7.493148	0.020825	0.179092	-0.982933	0.192760	-0.074057	-0.539790	-0.466620	0.544357	-0.441099
11261		7.585737	0.217952	0.423953	-0.984138	0.220045	-0.089722	-0.542813	-0.463672	0.545779	-0.438733
11262		7.946978	0.278215	0.617919	-1.002822	0.228805	-0.122448	-0.545979	-0.460727	0.547113	-0.436240
11263		8.287989	0.296720	0.599199	-1.013609	0.209822	-0.133873	-0.549114	-0.457813	0.548495	-0.433629
11264		8.197700	0.304941	0.262210	-1.040179	0.219201	-0.147995	-0.552367	-0.454829	0.549846	-0.430919
11265		7.943537	0.276359	-0.274115	-1.063290	0.147348	-0.146003	-0.555443	-0.451922	0.551445	-0.427968
11266		7.879264	0.425095	-0.602124	-1.042678	0.167592	-0.155140	-0.558548	-0.449039	0.552893	-0.425085
11267		7.758607	0.534746	-0.630194	-1.071042	0.282397	-0.147003	-0.561976	-0.445790	0.554106	-0.422399
11268		7.861512	0.430280	-0.693401	-1.076344	0.263648	-0.129602	-0.565324	-0.442505	0.555389	-0.419692
11269		8.329103	0.336143	-0.690696	-1.088380	0.283212	-0.093406	-0.568639	-0.439034	0.556723	-0.417083
11270		8.440691	0.189209	-0.927201	-1.057061	0.270972	-0.066894	-0.571793	-0.435592	0.558052	-0.414596
11271		8.559137	-0.042419	-1.281480	-1.015915	0.201293	-0.055549	-0.574611	-0.432378	0.559516	-0.412084
11272		8.505412	-0.468602	-1.546370	-0.926724	0.159062	-0.047783	-0.577108	-0.429480	0.560900	-0.409737
11273		8.340514	-0.857099	-1.522943	-0.843818	0.135845	-0.027157	-0.579292	-0.426810	0.562229	-0.407617
11274		8.301352	-1.097016	-1.092395	-0.721811	0.213193	-0.000477	-0.581382	-0.424252	0.563120	-0.406080
11275		7.937615	-1.222838	-0.092035	-0.627197	0.273316	0.045086	-0.583318	-0.421718	0.563755	-0.405062
11276		7.592740	-1.068614	0.392152	-0.544995	0.120964	0.095583	-0.584564	-0.419601	0.564744	-0.404084
11277		7.656051	-0.543226	0.007882	-0.455572	-0.142687	0.135230	-0.584791	-0.418192	0.566404	-0.402891
11278		8.069277	0.341926	-1.068395	-0.529978	-0.323091	0.161316	-0.584628	-0.416863	0.568767	-0.401173
11279		8.061135	0.964680	-2.099221	-0.648441	-0.396030	0.182744	-0.584437	-0.415274	0.571635	-0.399018
11280		8.162475	1.664871	-2.954796	-0.870770	-0.360098	0.189069	-0.584795	-0.412927	0.574833	-0.396324
11281		8.266924	1.448587	-3.280455	-0.929844	-0.230918	0.169032	-0.585649	-0.410188	0.577742	-0.393669
11282		8.846302	1.387157	-1.270976	-0.543638	-0.112609	0.088283	-0.586229	-0.408567	0.579345	-0.392133
11283		10.122759	1.275513	-0.144229	-0.379136	-0.124631	-0.009684	-0.586623	-0.407735	0.580465	-0.390751
11284		11.882124	-0.384231	-0.969655	-0.287458	-0.094637	-0.103497	-0.587126	-0.407372	0.581101	-0.389426
11285		12.664419	-2.933081	-1.758343	-0.243504	-0.013401	-0.142264	-0.587831	-0.407087	0.581353	-0.388282
11286		11.356691	-4.538297	-2.655220	-0.206260	0.047637	-0.109799	-0.588587	-0.406694	0.581404	-0.387472
11287		9.474808	-4.401290	-3.206885	-0.090745	0.024635	-0.032285	-0.588866	-0.406475	0.581477	-0.387168
11288		9.192231	-1.937407	-2.856443	-0.110501	0.018253	0.003137	-0.589115	-0.406106	0.581661	-0.386901
11289		10.881823	-0.101700	-2.238909	-0.394719	0.249344	-0.013811	-0.590605	-0.404476	0.581718	-0.386249
11290		11.967675	1.651209	-0.577572	-0.413197	0.043749	-0.066948	-0.591672	-0.403349	0.582272	-0.384958
11291		14.327981	3.254633	-0.496480	-0.855790	-0.446145	-0.132144	-0.592325	-0.402063	0.584987	-0.381164
11292		13.961342	3.873454	-0.769821	-0.853654	-0.196891	-0.184578	-0.593804	-0.400425	0.586830	-0.377740
11293		11.870787	4.645780	1.572807	-0.841379	-0.310154	-0.286045	-0.595099	-0.399333	0.588780	-0.373802
11294		11.540585	3.484109	2.891670	-0.981794	-0.422377	-0.455094	-0.596686	-0.398505	0.590937	-0.368719
11295		12.344471	0.583955	4.211334	-0.888861	-0.154082	-0.657937	-0.599223	-0.398016	0.591718	-0.363846
11296		13.269617	-2.811557	6.097602	-0.583446	0.225457	-0.861848	-0.602656	-0.398300	0.590366	-0.360042
11297		12.823535	-5.590938	4.878436	-0.312040	-0.114645	-0.942754	-0.604686	-0.400276	0.589362	-0.356070
11298		11.703374	-6.046137	1.010686	-0.295186	-0.564046	-0.900986	-0.605305	-0.403003	0.589713	-0.351331
11299		10.257761	-3.863213	-0.092844	-0.087709	-0.358061	-0.728790	-0.605753	-0.405485	0.589447	-0.348135
11300		8.711674	-0.249448	0.450941	-0.118278	-0.186734	-0.523142	-0.606391	-0.406966	0.589128	-0.345827
11301		9.393070	2.022229	0.218770	-0.121569	-0.132080	-0.356622	-0.606867	-0.407859	0.589019	-0.344124
11302		11.012078	3.800628	0.512398	0.027144	0.023074	-0.270587	-0.607352	-0.408680	0.588348	-0.343440
11303		12.586374	3.902684	0.628421	0.083681	-0.015293	-0.238346	-0.607533	-0.409653	0.587778	-0.342936
11304		13.732168	2.773716	0.563971	0.109086	-0.170935	-0.218919	-0.607195	-0.410924	0.587650	-0.342232
11305		13.281982	1.096789	0.492226	0.099837	-0.286116	-0.194996	-0.606480	-0.412306	0.587948	-0.341325
11306		11.862823	-0.255287	0.156305	0.080215	-0.373152	-0.177574	-0.605538	-0.413729	0.588555	-0.340226
11307		10.437462	-1.491941	-0.242658	0.035226	-0.380038	-0.142211	-0.604584	-0.414926	0.589352	-0.339086
11308		9.199766	-2.279902	-0.315741	0.063579	-0.273415	-0.113543	-0.603845	-0.415935	0.589824	-0.338343
11309		8.275324	-2.322601	-0.067091	0.138238	-0.154956	-0.065875	-0.603190	-0.416826	0.589938	-0.338218
11310		7.921415	-1.842387	-0.263094	0.225937	-0.093214	-0.003859	-0.602440	-0.417694	0.589833	-0.338666
11311		7.927171	-1.280751	-0.366129	0.277895	-0.046836	0.070078	-0.601564	-0.418425	0.589679	-0.339588
11312		7.797683	-0.860769	-0.144427	0.355676	0.020087	0.136219	-0.600619	-0.419084	0.589315	-0.341077
11313		7.693190	-0.470237	-0.274927	0.433981	-0.014611	0.198012	-0.599276	-0.419861	0.589069	-0.342904
11314		7.664372	-0.459689	-0.480775	0.550385	-0.036228	0.227793	-0.597590	-0.420942	0.588724	-0.345106
11315		7.492435	-0.500508	-0.567449	0.688396	-0.045648	0.254441	-0.595513	-0.422374	0.588237	-0.347767
11316		7.487323	-0.505417	-0.861248	0.812062	-0.041106	0.257337	-0.593196	-0.424156	0.587496	-0.350798
11317		7.501045	-0.772167	-0.818380	0.858996	0.020208	0.252445	-0.590933	-0.425970	0.586492	-0.354083
11318		7.684916	-1.007465	-0.593757	0.894636	0.057916	0.236169	-0.588744	-0.427861	0.585246	-0.357496
11319		7.910523	-1.192412	-0.777779	0.904398	0.079588	0.222838	-0.586587	-0.429765	0.583899	-0.360943
11320		8.191658	-1.060539	-0.993069	0.912198	0.090193	0.198430	-0.584499	-0.431736	0.582419	-0.364353
11321		8.292313	-0.734641	-1.244739	0.884116	0.101824	0.185553	-0.582494	-0.433625	0.580939	-0.367668
11322		8.308181	-0.154996	-1.541685	0.851506	0.087154	0.166218	-0.580566	-0.435495	0.579485	-0.370789
11323		8.320536	0.555006	-1.787642	0.781818	0.103879	0.144315	-0.578845	-0.437179	0.578077	-0.373683
11324		8.199950	1.069257	-1.856639	0.643258	0.178353	0.117603	-0.577704	-0.438386	0.576630	-0.376264
11325		7.880294	1.204243	-1.743536	0.518844	0.230976	0.080482	-0.577026	-0.439222	0.575205	-0.378503
11326		7.977927	1.329817	-1.057908	0.403013	0.288110	0.033794	-0.576873	-0.439739	0.573708	-0.380403
11327		7.848710	1.007787	-0.558192	0.202173	0.395482	-0.033262	-0.577569	-0.439639	0.572163	-0.381788
11328		7.577475	0.534434	-0.256354	0.126482	0.283484	-0.118488	-0.578307	-0.439779	0.570863	-0.382454
11329		7.821823	0.101853	-0.729190	0.145587	0.074558	-0.192443	-0.578543	-0.440591	0.569973	-0.382490
11330		8.288424	-0.294594	-1.573023	0.247205	-0.026340	-0.232475	-0.578377	-0.442014	0.569057	-0.382464
11331		8.808743	-0.801243	-2.093197	0.353256	-0.006567	-0.227878	-0.578000	-0.443689	0.567911	-0.382796
11332		9.373495	-1.288799	-1.642413	0.392255	0.085298	-0.189619	-0.577736	-0.445192	0.566491	-0.383553
11333		9.959072	-1.728548	-0.844521	0.276875	0.142965	-0.120379	-0.577721	-0.446047	0.565313	-0.384320
11334		10.611041	-1.594496	-0.466968	0.197448	0.119658	-0.018328	-0.577633	-0.446440	0.564563	-0.385098
11335		11.466534	0.034599	0.076659	0.041499	0.172553	0.094521	-0.577783	-0.445958	0.564250	-0.385890
11336		11.726929	2.296588	0.449927	-0.280131	0.190064	0.165877	-0.578570	-0.444310	0.564653	-0.386021
11337		11.053679	3.932618	-1.322836	-0.459012	-0.035206	0.177040	-0.579077	-0.442554	0.566091	-0.385171
11338		10.661524	4.437365	-2.974903	-0.418815	-0.143119	0.146086	-0.579281	-0.441219	0.567657	-0.384089
11339		10.469745	3.772555	-2.182162	-0.373353	0.026857	0.118643	-0.579887	-0.439748	0.568613	-0.383447
11340		10.964859	2.153421	-1.747562	-0.485977	0.010484	0.111354	-0.580729	-0.438001	0.569790	-0.382424
11341		12.655992	-0.064438	-3.117592	-0.552996	-0.031417	0.128292	-0.581536	-0.436089	0.571275	-0.381165
11342		13.663513	-2.137641	-3.698641	-0.510850	-0.013022	0.175172	-0.582230	-0.434133	0.572702	-0.380197
11343		13.920680	-3.669445	-1.660525	-0.432825	0.056284	0.237329	-0.582796	-0.432092	0.573943	-0.379784
11344		12.619395	-4.075804	1.036643	-0.452574	0.082511	0.280341	-0.583415	-0.429819	0.575211	-0.379493
11345		12.051557	-3.138986	1.280786	-0.665722	-0.069345	0.347923	-0.583889	-0.427023	0.577494	-0.378452
11346		12.897939	-0.975768	2.408473	-0.752569	0.083132	0.476824	-0.584741	-0.423303	0.579752	-0.377862
11347		12.207179	1.700064	4.904799	-0.876575	0.180639	0.598045	-0.585846	-0.418670	0.582246	-0.377478
11348		11.200325	2.736286	2.937122	-0.846679	-0.392730	0.584673	-0.585288	-0.415282	0.586254	-0.375879
11349		11.523073	2.899173	0.078117	-0.405886	-0.511525	0.459607	-0.583690	-0.413772	0.589510	-0.374936
11350		10.204612	2.103633	-0.302753	-0.188299	-0.183309	0.341168	-0.582850	-0.412602	0.591131	-0.374981
11351		9.488989	0.634724	0.351771	-0.078253	-0.159186	0.240857	-0.582026	-0.411991	0.592284	-0.375112
11352		10.550812	-0.853658	0.777860	-0.090789	-0.079099	0.211723	-0.581542	-0.411274	0.593144	-0.375290
11353		11.403668	-1.576599	1.575014	-0.098761	0.076871	0.265193	-0.581397	-0.410069	0.593712	-0.375935
11354		11.911014	-1.427108	1.427389	-0.258232	-0.000235	0.360098	-0.581186	-0.408276	0.594976	-0.376215
11355		12.104792	-0.903845	0.731202	-0.392980	0.017565	0.413349	-0.581164	-0.405890	0.596578	-0.376293
11356		11.301341	-0.053427	0.425285	-0.477548	0.101418	0.415127	-0.581575	-0.403088	0.598075	-0.376293
11357		10.409359	1.199843	0.385856	-0.614062	0.035334	0.325127	-0.582211	-0.400265	0.599853	-0.375494
11358		10.152674	2.022991	0.515537	-0.778789	0.019174	0.173613	-0.583442	-0.397431	0.601643	-0.373723
11359		9.917571	2.527326	0.452913	-0.897233	0.034250	0.033956	-0.585192	-0.394615	0.603342	-0.371225
11360		9.796466	2.545149	0.293990	-0.987448	0.027999	-0.067580	-0.587309	-0.391839	0.604984	-0.368137
11361		9.569911	2.133444	0.222049	-1.049341	0.032815	-0.135349	-0.589654	-0.389054	0.606598	-0.364670
11362		9.169989	1.529693	0.193553	-1.090884	0.021359	-0.181043	-0.592139	-0.386295	0.608189	-0.360907
11363		8.746843	0.630700	-0.111385	-1.139309	0.034721	-0.191159	-0.594734	-0.383381	0.609812	-0.356987
11364		8.107001	-0.124970	-0.236935	-1.138867	0.103470	-0.184013	-0.597524	-0.380309	0.611205	-0.353212
11365		7.640110	-0.527689	-0.065025	-1.076998	0.161644	-0.182805	-0.600328	-0.377297	0.612323	-0.349735
11366		7.320592	-0.670886	0.185943	-1.053836	0.199979	-0.181562	-0.603207	-0.374274	0.613248	-0.346393
11367		7.492050	-0.835950	0.196441	-1.051903	0.194146	-0.179592	-0.606020	-0.371247	0.614195	-0.343045
11368		7.590782	-0.791358	0.198482	-1.010933	0.225303	-0.160469	-0.608823	-0.368225	0.614976	-0.339926
11369		7.394961	-0.457503	0.250050	-0.993500	0.227464	-0.151681	-0.611546	-0.365213	0.615743	-0.336885
11370		7.255283	-0.215954	-0.114496	-0.983459	0.208633	-0.158773	-0.614213	-0.362281	0.616497	-0.333805
11371		7.386288	0.125339	-0.555565	-0.965010	0.183231	-0.170940	-0.616754	-0.359475	0.617281	-0.330692
11372		7.417180	0.394205	-0.839466	-0.932083	0.216434	-0.176535	-0.619354	-0.356725	0.617861	-0.327712
11373		7.588640	0.587046	-0.838381	-0.901825	0.258621	-0.176811	-0.621992	-0.353987	0.618272	-0.324899
11374		7.885277	0.615389	-0.891073	-0.884023	0.302913	-0.161211	-0.624717	-0.351177	0.618508	-0.322259
11375		8.093891	0.357773	-1.133633	-0.848761	0.293375	-0.131820	-0.627263	-0.348396	0.618781	-0.319798
11376		8.202724	0.013864	-1.235466	-0.819033	0.262287	-0.084868	-0.629595	-0.345616	0.619151	-0.317507
11377		8.207403	-0.428789	-1.109922	-0.736570	0.293473	-0.047861	-0.631784	-0.342927	0.619372	-0.315639
11378		7.874147	-0.762835	-0.528350	-0.669190	0.311556	0.000034	-0.633848	-0.340275	0.619482	-0.314153
11379		7.640225	-0.934229	-0.124557	-0.628274	0.213768	0.067649	-0.635399	-0.337705	0.619969	-0.312830
11380		7.801565	-1.089732	-0.425071	-0.560169	0.147464	0.133890	-0.636541	-0.335262	0.620641	-0.311801
11381		7.832647	-0.448147	-0.703886	-0.368610	0.012502	0.177850	-0.636851	-0.333518	0.621532	-0.311263
11382		8.029378	0.726595	-1.460780	-0.414001	-0.215711	0.183933	-0.636547	-0.331986	0.623193	-0.310198
11383		8.185278	1.676474	-3.002775	-0.585957	-0.355671	0.155443	-0.636112	-0.330210	0.625534	-0.308269
11384		8.366553	1.877344	-3.456281	-0.641384	-0.243407	0.120658	-0.636189	-0.328178	0.627515	-0.306247
11385		8.459469	1.402754	-2.164136	-0.553972	-0.191563	0.084591	-0.636310	-0.326450	0.629157	-0.304469
11386		9.437398	0.184037	-0.905568	-0.337317	-0.185722	0.052769	-0.636173	-0.325505	0.630362	-0.303272
11387		11.135357	-1.083341	-0.610794	0.033703	-0.055044	0.009919	-0.635885	-0.325674	0.630543	-0.303320
11388		12.034594	-2.400338	-1.189236	0.224775	0.090825	-0.024000	-0.635824	-0.326328	0.629887	-0.304106
11389		11.907855	-4.747308	-3.055806	0.158915	0.111998	-0.032317	-0.635920	-0.326760	0.629280	-0.304697
11390		11.524315	-4.969748	-2.966031	0.354667	0.326523	-0.072371	-0.636457	-0.327599	0.627599	-0.306138
11391		10.644533	-3.603597	-1.383001	0.556787	0.496527	-0.107549	-0.637211	-0.328915	0.625038	-0.308389
11392		10.626076	-0.493397	-1.494697	0.428033	0.123282	-0.135645	-0.637097	-0.330509	0.623764	-0.309500
11393		12.356087	1.825439	-2.186254	0.023091	-0.209960	-0.193956	-0.636681	-0.331515	0.624100	-0.308599
11394		14.099209	4.091334	0.468633	-0.386207	-0.015379	-0.295199	-0.637733	-0.331199	0.624254	-0.306449
11395		13.535181	5.037787	2.217060	-0.362023	0.040033	-0.425584	-0.639092	-0.331264	0.624000	-0.304056
11396		13.799946	5.828315	3.190051	-0.323694	-0.229641	-0.631537	-0.639918	-0.332511	0.624140	-0.300650
11397		14.461696	3.308433	4.373722	-0.461271	-0.290072	-0.839826	-0.641076	-0.334037	0.624338	-0.296046
11398		14.077871	0.205700	5.139356	-0.178891	-0.316520	-0.914273	-0.641818	-0.336737	0.624020	-0.292021
11399		12.103251	-2.190296	4.066526	-0.355937	-0.437053	-0.842311	-0.642328	-0.338821	0.624484	-0.287460
11400		10.001188	-3.469242	1.529511	-0.369112	-0.558322	-0.678611	-0.642247	-0.340541	0.625597	-0.283158
11401		9.025484	-3.009597	-0.446389	-0.305199	-0.458496	-0.504151	-0.642062	-0.341777	0.626629	-0.279788
11402		9.054685	-1.412361	0.205225	-0.211929	-0.209926	-0.361767	-0.642295	-0.342510	0.626962	-0.277603
11403		10.336065	0.011559	0.617547	-0.172809	-0.179437	-0.283494	-0.642408	-0.343080	0.627308	-0.275848
11404		12.255106	1.468588	0.407592	0.026581	-0.093104	-0.275699	-0.642464	-0.344150	0.627087	-0.274886
11405		13.141475	2.361064	0.807439	0.129663	-0.081907	-0.300702	-0.642387	-0.345609	0.626669	-0.274190
11406		13.216291	2.247064	1.030032	0.217885	-0.279883	-0.316424	-0.641593	-0.347694	0.626695	-0.273350
11407		12.794772	1.333346	0.829553	0.200717	-0.402149	-0.293488	-0.640387	-0.349824	0.627196	-0.272310
11408		11.713364	0.474814	0.494928	0.161030	-0.441263	-0.220344	-0.639043	-0.351660	0.627977	-0.271301
11409		10.434634	-0.353162	-0.004879	0.112170	-0.420030	-0.150418	-0.637718	-0.353086	0.628908	-0.270407
11410		9.284463	-0.968239	-0.030560	0.114601	-0.317395	-0.092052	-0.636646	-0.354197	0.629593	-0.269888
11411		8.552588	-1.298045	-0.070392	0.126416	-0.207411	-0.060476	-0.635821	-0.355084	0.630000	-0.269717
11412		7.999876	-1.433941	-0.229613	0.164910	-0.121103	-0.017997	-0.635161	-0.355845	0.630135	-0.269953
11413		7.849956	-1.105498	-0.323317	0.240517	-0.109464	0.045302	-0.634284	-0.356631	0.630274	-0.270655
11414		7.708112	-0.564386	-0.255813	0.330886	-0.079379	0.111143	-0.633269	-0.357465	0.630288	-0.271893
11415		7.305248	-0.112284	-0.113165	0.399323	-0.051437	0.159819	-0.632120	-0.358319	0.630236	-0.273559
11416		7.120381	0.053646	-0.077248	0.467587	-0.096943	0.197814	-0.630675	-0.359346	0.630271	-0.275460
11417		7.103943	-0.064457	-0.043543	0.521531	-0.133402	0.233957	-0.628935	-0.360476	0.630434	-0.277583
11418		6.996148	-0.331204	-0.258513	0.578093	-0.164456	0.251069	-0.626992	-0.361783	0.630611	-0.279863
11419		7.203256	-0.549111	-0.324300	0.636653	-0.207773	0.260793	-0.624760	-0.363297	0.630878	-0.282282
11420		7.336518	-0.820964	-0.521228	0.674552	-0.169141	0.262011	-0.622598	-0.364872	0.630938	-0.284882
11421		7.577325	-0.901484	-0.749649	0.695701	-0.123970	0.257492	-0.620508	-0.366445	0.630839	-0.287629
11422		7.843231	-1.025727	-1.038604	0.649809	-0.041205	0.250234	-0.618790	-0.367775	0.630504	-0.290352
11423		8.102326	-1.010095	-1.264790	0.679171	0.078722	0.249133	-0.617357	-0.369001	0.629780	-0.293404
11424		8.296896	-0.541903	-1.118170	0.715034	0.159200	0.233094	-0.616153	-0.370269	0.628690	-0.296657
11425		8.391100	0.053843	-0.899993	0.715237	0.199800	0.215641	-0.615064	-0.371510	0.627463	-0.299945
11426		8.366410	0.520164	-0.997993	0.679199	0.249487	0.174200	-0.614282	-0.372693	0.626023	-0.303072
11427		8.095011	0.628570	-0.959463	0.633772	0.286756	0.145846	-0.613708	-0.373745	0.624506	-0.306055
11428		7.805254	0.731629	-0.500862	0.609081	0.316548	0.098207	-0.613371	-0.374825	0.622808	-0.308857
11429		7.519243	0.647927	-0.309792	0.493831	0.343360	0.035620	-0.613397	-0.375678	0.621111	-0.311176
11430		7.360053	0.377992	-0.510665	0.398437	0.249420	-0.053076	-0.613486	-0.376668	0.619641	-0.312732
11431		7.324199	0.015762	-1.369163	0.363598	0.048566	-0.144953	-0.613148	-0.378144	0.618679	-0.313518
11432		7.674873	-0.334462	-2.696000	0.521394	-0.152320	-0.197129	-0.612014	-0.380608	0.617936	-0.314215
11433		8.529260	-0.464279	-3.312227	0.684045	-0.115084	-0.188124	-0.610635	-0.383470	0.616865	-0.315522
11434		9.374281	-0.565909	-2.311269	0.642519	0.088820	-0.133857	-0.609886	-0.385709	0.615317	-0.317257
11435		10.059620	-0.730663	-0.595416	0.356187	0.224353	-0.068750	-0.609949	-0.386629	0.613981	-0.318602
11436		11.048757	-0.370749	0.312207	0.013325	0.168228	0.015417	-0.610387	-0.386346	0.613501	-0.319032
11437		12.576627	0.738597	0.122342	-0.370583	0.224095	0.099734	-0.611552	-0.384519	0.613672	-0.318678
11438		12.108011	3.131970	-0.771462	-0.405526	0.209298	0.144756	-0.612691	-0.382485	0.613999	-0.318309
11439		11.073108	5.277274	-2.248402	-0.378406	-0.220860	0.170654	-0.612398	-0.381164	0.615656	-0.317255
11440		11.023812	5.239406	-3.625237	-0.300243	-0.369681	0.203686	-0.611479	-0.380243	0.617665	-0.316227
11441		11.052773	3.698853	-3.249315	-0.350702	0.015648	0.201059	-0.611796	-0.378522	0.618620	-0.315811
11442		10.920653	0.896676	-3.478733	-0.564626	0.285315	0.140550	-0.613466	-0.375880	0.618951	-0.315076
11443		12.448847	-2.075426	-4.260697	-0.653450	-0.012484	0.117080	-0.614393	-0.373516	0.620303	-0.313418
11444		14.816963	-4.372258	-1.906498	-0.507604	-0.205634	0.210240	-0.614331	-0.371646	0.622148	-0.312104
11445		14.235606	-3.927726	1.715914	-0.473610	-0.052195	0.327806	-0.614440	-0.369261	0.623732	-0.311558
11446		11.987037	-3.037369	0.962304	-0.595046	-0.292007	0.423835	-0.613903	-0.366604	0.626373	-0.310453
11447		12.272834	-1.543940	1.409565	-0.169493	-0.409794	0.613297	-0.611870	-0.364865	0.629087	-0.311028
11448		12.036943	1.537550	5.398890	0.000881	-0.006703	0.763103	-0.610557	-0.362537	0.630559	-0.313341
11449		10.301562	3.180387	3.554526	-0.270318	-0.488873	0.852611	-0.608037	-0.359874	0.634097	-0.314172
11450		11.255725	2.663188	-0.326466	-0.243853	-0.711794	0.822846	-0.604839	-0.357755	0.638152	-0.314553
11451		10.981793	1.244052	-0.329122	-0.018777	-0.425713	0.701383	-0.602298	-0.356208	0.640789	-0.315821
