// General information: 
//  MT Manager version: 2019.1.1 
//  XDA version: 2019.1.1 build 3010 rev 85319 built on 2019-03-01
// Device information: 
//  DeviceId: 00B485ED
//  ProductCode: MTW2-3A7G6
//  Firmware Version: 4.6.0
//  Hardware Version: 2.0.0
// Device settings: 
//  Filter Profile: human(46.1)
//  Option Flags: Orientation Smoother Disabled, AHS Disabled, ICC Disabled
// Coordinate system: ENU
PacketCounter	SampleTimeFine	Acc_X	Acc_Y	Acc_Z	Gyr_X	Gyr_Y	Gyr_Z	Quat_q0	Quat_q1	Quat_q2	Quat_q3
10291		4.444138	-1.324505	8.604949	-0.010657	0.016216	0.007755	0.945229	-0.131678	-0.219219	-0.202847
10292		4.411029	-1.329385	8.591991	-0.010855	0.017737	0.008020	0.945239	-0.131719	-0.219135	-0.202860
10293		4.414522	-1.371726	8.635668	-0.007671	0.016785	0.007232	0.945255	-0.131741	-0.219063	-0.202853
10294		4.419057	-1.317543	8.563698	-0.006511	0.017237	0.005469	0.945265	-0.131757	-0.218990	-0.202872
10295		4.396177	-1.327230	8.572339	-0.009165	0.016499	0.007492	0.945280	-0.131786	-0.218917	-0.202865
10296		4.436225	-1.329782	8.608218	-0.006573	0.020111	0.007501	0.945298	-0.131798	-0.218829	-0.202864
10297		4.440538	-1.353160	8.600790	-0.012350	0.017450	0.008278	0.945312	-0.131843	-0.218748	-0.202858
10298		4.417317	-1.362991	8.609562	-0.005806	0.023605	0.006270	0.945334	-0.131849	-0.218642	-0.202869
10299		4.409248	-1.341699	8.618595	-0.008265	0.021346	0.008026	0.945354	-0.131870	-0.218548	-0.202861
10300		4.391970	-1.373596	8.619281	-0.007435	0.021966	0.004763	0.945370	-0.131885	-0.218450	-0.202883
10301		4.412409	-1.346663	8.561031	-0.005279	0.021914	0.007505	0.945393	-0.131890	-0.218356	-0.202876
10302		4.377846	-1.369938	8.599468	-0.004448	0.022534	0.004242	0.945410	-0.131889	-0.218260	-0.202897
10303		4.401470	-1.344784	8.622089	-0.005217	0.019039	0.005471	0.945428	-0.131895	-0.218181	-0.202897
10304		4.410875	-1.331728	8.593338	-0.009261	0.021848	0.003519	0.945439	-0.131921	-0.218081	-0.202937
10305		4.410022	-1.390772	8.607370	-0.002999	0.016112	0.006182	0.945455	-0.131920	-0.218018	-0.202930
10306		4.386224	-1.341888	8.602740	-0.006381	0.018584	0.007231	0.945468	-0.131937	-0.217936	-0.202944
10307		4.363282	-1.351339	8.611364	-0.005155	0.016163	0.003438	0.945480	-0.131944	-0.217871	-0.202952
10308		4.393324	-1.348254	8.625701	-0.001837	0.016563	0.004421	0.945492	-0.131938	-0.217806	-0.202973
10309		4.393058	-1.329686	8.575191	-0.004628	0.014473	0.004673	0.945504	-0.131945	-0.217750	-0.202974
10310		4.365084	-1.375116	8.605127	-0.004825	0.015994	0.004939	0.945514	-0.131955	-0.217683	-0.202992
10311		4.395209	-1.372162	8.619414	-0.004958	0.014641	0.003172	0.945524	-0.131961	-0.217626	-0.203001
10312		4.419593	-1.346737	8.641734	0.000972	0.009073	0.004337	0.945531	-0.131947	-0.217599	-0.203005
10313		4.367723	-1.398410	8.598542	-0.001906	0.012336	0.000622	0.945539	-0.131939	-0.217558	-0.203022
10314		4.386081	-1.350806	8.628988	-0.004235	0.011430	0.004141	0.945541	-0.131951	-0.217513	-0.203049
10315		4.374985	-1.345992	8.607820	-0.001709	0.010815	0.000356	0.945547	-0.131944	-0.217479	-0.203065
10316		4.395494	-1.337354	8.600342	-0.000018	0.009578	-0.000167	0.945549	-0.131930	-0.217450	-0.203095
10317		4.377285	-1.329107	8.638441	-0.001709	0.010815	0.000356	0.945554	-0.131922	-0.217416	-0.203112
10318		4.409874	-1.364930	8.614695	0.000641	0.009241	0.002836	0.945559	-0.131909	-0.217388	-0.203128
10319		4.371398	-1.346483	8.609566	-0.003071	0.011882	0.002381	0.945567	-0.131909	-0.217347	-0.203137
10320		4.386439	-1.373954	8.623595	0.002905	0.013019	0.001349	0.945574	-0.131880	-0.217305	-0.203164
10321		4.375220	-1.368644	8.602569	0.001082	0.012904	0.000105	0.945584	-0.131857	-0.217263	-0.203180
10322		4.405396	-1.365143	8.616952	-0.000675	0.017013	0.002660	0.945596	-0.131842	-0.217197	-0.203201
10323		4.382693	-1.373900	8.625508	0.001082	0.012903	0.000105	0.945606	-0.131818	-0.217156	-0.203217
10324		4.381497	-1.373775	8.626135	0.002707	0.014539	0.001614	0.945619	-0.131786	-0.217106	-0.203230
10325		4.364097	-1.346211	8.613311	0.002378	0.014708	0.000112	0.945631	-0.131755	-0.217058	-0.203246
10326		4.378100	-1.315029	8.614274	0.003675	0.016512	0.000120	0.945641	-0.131719	-0.217001	-0.203283
10327		4.370581	-1.292641	8.623172	0.000161	0.017633	-0.000603	0.945654	-0.131695	-0.216937	-0.203305
10328		4.369255	-1.292525	8.623861	0.002903	0.013018	0.001349	0.945665	-0.131662	-0.216896	-0.203320
10329		4.370170	-1.331643	8.586574	0.001081	0.012902	0.000104	0.945674	-0.131639	-0.216855	-0.203336
10330		4.379219	-1.336937	8.608706	-0.002876	0.010360	0.002111	0.945678	-0.131639	-0.216820	-0.203357
10331		4.409702	-1.333856	8.622899	-0.003912	0.011259	0.005636	0.945687	-0.131647	-0.216779	-0.203351
10332		4.387160	-1.343027	8.631276	-0.001121	0.013348	0.005387	0.945697	-0.131641	-0.216730	-0.203361
10333		4.402043	-1.370745	8.645364	-0.001121	0.013348	0.005387	0.945711	-0.131633	-0.216681	-0.203355
10334		4.378582	-1.321405	8.640587	-0.000152	0.015321	0.003894	0.945721	-0.131621	-0.216622	-0.203376
10335		4.379354	-1.360989	8.603309	-0.002616	0.013063	0.005643	0.945734	-0.131620	-0.216573	-0.203369
10336		4.366627	-1.375104	8.633461	0.000489	0.017462	0.000898	0.945746	-0.131597	-0.216508	-0.203399
10337		4.386583	-1.366417	8.626343	0.001342	0.015604	0.003637	0.945762	-0.131574	-0.216452	-0.203400
10338		4.378975	-1.344134	8.635259	0.003935	0.019213	0.003654	0.945781	-0.131535	-0.216381	-0.203413
10339		4.357196	-1.333521	8.592874	0.005102	0.019665	0.001896	0.945802	-0.131488	-0.216311	-0.203420
10340		4.369501	-1.321414	8.645182	0.001786	0.019265	0.000905	0.945818	-0.131454	-0.216239	-0.203440
10341		4.369769	-1.360556	8.608250	0.003539	0.022252	0.004182	0.945844	-0.131414	-0.216154	-0.203439
10342		4.365789	-1.321387	8.647061	-0.000421	0.019711	0.006186	0.945861	-0.131400	-0.216074	-0.203452
10343		4.391370	-1.335269	8.632030	-0.002964	0.022805	0.003965	0.945882	-0.131390	-0.215980	-0.203459
10344		4.383981	-1.371847	8.654362	-0.001985	0.022299	0.008471	0.945905	-0.131382	-0.215886	-0.203460
10345		4.373938	-1.406516	8.595828	-0.004854	0.025561	0.004748	0.945929	-0.131379	-0.215777	-0.203466
10346		4.306840	-1.374519	8.607037	0.002886	0.022586	0.001178	0.945948	-0.131339	-0.215690	-0.203493
10347		4.336367	-1.370820	8.621874	0.003735	0.020728	0.003918	0.945972	-0.131299	-0.215612	-0.203493
10348		4.340742	-1.392890	8.614646	0.001984	0.017741	0.000640	0.945985	-0.131269	-0.215546	-0.203520
10349		4.354558	-1.361674	8.615777	0.004647	0.018477	-0.001372	0.946001	-0.131221	-0.215483	-0.203543
10350		4.353119	-1.361185	8.616582	0.005043	0.015436	-0.001900	0.946010	-0.131178	-0.215432	-0.203586
10351		4.330366	-1.369421	8.625112	0.006018	0.014930	0.002607	0.946027	-0.131132	-0.215385	-0.203586
10352		4.371792	-1.351507	8.610344	0.005816	0.018928	-0.003129	0.946039	-0.131079	-0.215320	-0.203632
10353		4.331262	-1.351056	8.656594	0.009004	0.017974	-0.003901	0.946055	-0.131009	-0.215265	-0.203662
10354		4.352622	-1.322691	8.598563	0.002628	0.019880	-0.002359	0.946066	-0.130971	-0.215191	-0.203711
10355		4.368849	-1.293273	8.680616	0.006861	0.015550	-0.000652	0.946081	-0.130917	-0.215144	-0.203726
10356		4.326842	-1.349422	8.659059	0.003222	0.015319	-0.003150	0.946089	-0.130878	-0.215094	-0.203767
10357		4.340976	-1.318042	8.660054	0.005564	0.013746	-0.000662	0.946101	-0.130832	-0.215054	-0.203783
10358		4.329922	-1.312407	8.638990	0.003943	0.012110	-0.002175	0.946106	-0.130794	-0.215020	-0.203819
10359		4.356358	-1.325441	8.623765	0.005239	0.013914	-0.002165	0.946117	-0.130748	-0.214979	-0.203842
10360		4.349695	-1.360898	8.645873	0.006211	0.015885	-0.003658	0.946125	-0.130695	-0.214930	-0.203889
10361		4.342426	-1.338040	8.654641	0.005437	0.012393	-0.002429	0.946134	-0.130649	-0.214897	-0.203912
10362		4.319794	-1.346227	8.663074	0.005688	0.015097	0.001103	0.946147	-0.130602	-0.214849	-0.203932
10363		4.367448	-1.350453	8.640248	0.008354	0.015831	-0.000906	0.946163	-0.130541	-0.214802	-0.203947
10364		4.344043	-1.300078	8.635455	0.008552	0.014311	-0.001169	0.946175	-0.130479	-0.214763	-0.203973
10365		4.327355	-1.330465	8.635892	0.003994	0.016333	0.001617	0.946191	-0.130440	-0.214708	-0.203981
10366		4.362755	-1.290628	8.629197	0.002175	0.016217	0.000367	0.946204	-0.130407	-0.214652	-0.204003
10367		4.330412	-1.352267	8.629418	0.003074	0.021060	0.000902	0.946224	-0.130367	-0.214574	-0.204018
10368		4.363913	-1.331430	8.674032	0.004118	0.017684	0.003382	0.946239	-0.130330	-0.214510	-0.204036
10369		4.336055	-1.298591	8.639692	0.005468	0.026185	0.001184	0.946267	-0.130274	-0.214410	-0.204050
10370		4.334549	-1.356470	8.654171	0.006510	0.022809	0.003665	0.946290	-0.130221	-0.214323	-0.204067
10371		4.316541	-1.328706	8.641573	0.004047	0.023028	-0.000593	0.946311	-0.130173	-0.214237	-0.204089
10372		4.336010	-1.319608	8.634908	0.006187	0.022976	0.002161	0.946332	-0.130122	-0.214149	-0.204119
10373		4.271425	-1.326386	8.607896	0.003916	0.019202	0.003643	0.946353	-0.130082	-0.214079	-0.204119
10374		4.274330	-1.367279	8.651807	0.005685	0.015093	0.001101	0.946366	-0.130036	-0.214029	-0.204138
10375		4.309959	-1.327080	8.645107	0.009395	0.012452	0.001577	0.946382	-0.129976	-0.213998	-0.204139
10376		4.318031	-1.273354	8.654154	0.003224	0.015312	-0.003158	0.946387	-0.129940	-0.213946	-0.204190
10377		4.307625	-1.326182	8.646409	0.003092	0.011487	0.001079	0.946397	-0.129909	-0.213913	-0.204198
10378		4.294907	-1.339957	8.676410	-0.000296	0.013960	0.002105	0.946404	-0.129896	-0.213863	-0.204226
10379		4.336866	-1.322522	8.661499	0.003812	0.008280	0.002059	0.946412	-0.129867	-0.213845	-0.204228
10380		4.332284	-1.339278	8.632196	0.004465	0.010417	-0.000937	0.946417	-0.129829	-0.213818	-0.204257
10381		4.328990	-1.299633	8.670516	0.003092	0.011486	0.001079	0.946427	-0.129799	-0.213785	-0.204266
10382		4.296630	-1.302977	8.657021	0.003413	0.011319	0.002582	0.946434	-0.129771	-0.213750	-0.204286
10383		4.268624	-1.347459	8.686667	0.004908	0.011602	0.002331	0.946446	-0.129734	-0.213718	-0.204287
10384		4.310918	-1.329887	8.671632	0.001097	0.003322	0.000272	0.946441	-0.129723	-0.213719	-0.204318
10385		4.316006	-1.293868	8.650433	-0.000475	0.005911	0.002549	0.946444	-0.129717	-0.213709	-0.204320
10386		4.300210	-1.324729	8.650321	0.002271	0.003772	-0.001482	0.946438	-0.129698	-0.213712	-0.204357
10387		4.299919	-1.324646	8.650479	-0.000077	0.002872	0.002026	0.946437	-0.129692	-0.213716	-0.204359
10388		4.305687	-1.346986	8.642606	-0.000276	0.004391	0.002288	0.946437	-0.129685	-0.213711	-0.204370
10389		4.320643	-1.316087	8.643144	0.000577	0.005009	-0.000970	0.946436	-0.129671	-0.213708	-0.204387
10390		4.302550	-1.307604	8.680788	0.001418	0.003155	0.001776	0.946433	-0.129659	-0.213710	-0.204405
10391		4.326082	-1.338046	8.635497	0.004087	0.003888	-0.000229	0.946434	-0.129630	-0.213715	-0.204414
10392		4.313757	-1.293403	8.651624	0.000520	-0.001687	0.001242	0.946424	-0.129627	-0.213740	-0.204436
10393		4.307519	-1.271287	8.659695	-0.002092	0.004276	0.001035	0.946422	-0.129629	-0.213736	-0.204446
10394		4.329188	-1.321012	8.665569	0.001540	0.004507	0.003541	0.946422	-0.129618	-0.213730	-0.204462
10395		4.325104	-1.338199	8.635963	-0.002214	0.002924	-0.000730	0.946417	-0.129620	-0.213733	-0.204479
10396		4.306958	-1.329868	8.673603	0.001020	0.006194	0.002299	0.946419	-0.129606	-0.213722	-0.204493
10397		4.318092	-1.316030	8.644427	0.000898	0.004841	0.000534	0.946419	-0.129592	-0.213718	-0.204503
10398		4.306038	-1.329899	8.674055	0.000045	0.004224	0.003791	0.946419	-0.129588	-0.213712	-0.204514
10399		4.342577	-1.290555	8.666829	-0.003389	0.002474	0.001023	0.946414	-0.129597	-0.213715	-0.204524
10400		4.317087	-1.316495	8.644859	0.001739	0.002987	0.003279	0.946412	-0.129586	-0.213718	-0.204538
10401		4.332201	-1.285728	8.645307	-0.003709	0.002641	-0.000480	0.946406	-0.129595	-0.213721	-0.204556
10402		4.294916	-1.325787	8.652789	-0.004839	0.006415	0.005065	0.946405	-0.129615	-0.213699	-0.204571
10403		4.327558	-1.303899	8.615835	-0.004441	0.003376	0.004542	0.946405	-0.129632	-0.213695	-0.204566
10404		4.325404	-1.323351	8.667102	-0.003267	0.003826	0.002788	0.946402	-0.129641	-0.213691	-0.204580
10405		4.336679	-1.309935	8.637804	-0.003267	0.003826	0.002788	0.946401	-0.129650	-0.213687	-0.204583
10406		4.293262	-1.327723	8.653313	-0.003145	0.005178	0.004553	0.946399	-0.129662	-0.213673	-0.204597
10407		4.292767	-1.328243	8.653479	-0.004961	0.005062	0.003299	0.946399	-0.129678	-0.213661	-0.204600
10408		4.296054	-1.311502	8.683416	-0.000276	0.004391	0.002288	0.946398	-0.129673	-0.213656	-0.204615
10409		4.307513	-1.297938	8.654056	-0.002029	-0.001068	0.005010	0.946395	-0.129683	-0.213675	-0.204603
10410		4.319473	-1.342638	8.638092	-0.001116	0.006246	-0.000458	0.946391	-0.129678	-0.213661	-0.204637
10411		4.322952	-1.325787	8.667952	-0.002029	-0.001068	0.005010	0.946388	-0.129688	-0.213681	-0.204625
10412		4.334513	-1.312419	8.638515	-0.004563	0.002024	0.002776	0.946381	-0.129706	-0.213683	-0.204642
10413		4.322644	-1.326775	8.667955	-0.004243	0.001856	0.004280	0.946379	-0.129723	-0.213686	-0.204637
10414		4.322362	-1.327324	8.668012	-0.004762	0.003543	0.003038	0.946376	-0.129740	-0.213680	-0.204650
10415		4.321944	-1.327901	8.668132	-0.004641	0.004895	0.004803	0.946377	-0.129757	-0.213668	-0.204645
10416		4.317784	-1.345486	8.638494	-0.003267	0.003825	0.002788	0.946374	-0.129767	-0.213661	-0.204662
10417		4.311218	-1.323567	8.646707	0.000166	0.005574	0.005557	0.946380	-0.129761	-0.213651	-0.204649
10418		4.304641	-1.301597	8.654935	-0.001451	0.003940	0.004041	0.946379	-0.129763	-0.213646	-0.204655
10419		4.326297	-1.351570	8.660752	-0.003267	0.003825	0.002788	0.946378	-0.129772	-0.213642	-0.204658
10420		4.306244	-1.341519	8.617418	-0.000276	0.004390	0.002288	0.946376	-0.129768	-0.213637	-0.204677
10421		4.287998	-1.333248	8.655073	-0.000475	0.005910	0.002550	0.946379	-0.129761	-0.213626	-0.204679
10422		4.321225	-1.369164	8.631566	-0.000596	0.004558	0.000785	0.946374	-0.129757	-0.213621	-0.204708
10423		4.318491	-1.329787	8.669563	0.002593	0.003603	0.000024	0.946374	-0.129736	-0.213625	-0.204717
10424		4.314464	-1.346709	8.639961	0.001098	0.003321	0.000274	0.946371	-0.129722	-0.213629	-0.204737
10425		4.311782	-1.307265	8.677940	0.002914	0.003435	0.001528	0.946372	-0.129701	-0.213634	-0.204739
10426		4.311355	-1.307210	8.678160	-0.001115	0.006245	-0.000457	0.946369	-0.129694	-0.213621	-0.204769
10427		4.316974	-1.329473	8.670367	0.001219	0.004672	0.002039	0.946372	-0.129681	-0.213618	-0.204771
10428		4.296909	-1.319193	8.627075	-0.000596	0.004558	0.000784	0.946367	-0.129676	-0.213614	-0.204798
10429		4.312498	-1.346655	8.640951	-0.000398	0.003039	0.000523	0.946365	-0.129670	-0.213618	-0.204808
10430		4.339362	-1.301923	8.612029	0.001617	0.001634	0.001516	0.946362	-0.129656	-0.213629	-0.204818
10431		4.319500	-1.312502	8.700721	-0.000078	0.002871	0.002026	0.946362	-0.129650	-0.213633	-0.204820
10432		4.305624	-1.324493	8.649353	-0.000916	0.004726	-0.000719	0.946356	-0.129646	-0.213626	-0.204857
10433		4.326924	-1.315870	8.641793	0.000320	-0.000168	0.001504	0.946351	-0.129641	-0.213646	-0.204860
10434		4.336603	-1.321094	8.663603	-0.000078	0.002871	0.002026	0.946348	-0.129636	-0.213649	-0.204876
10435		4.336341	-1.321240	8.663712	-0.001893	0.002756	0.000772	0.946345	-0.129637	-0.213652	-0.204886
10436		4.288909	-1.297449	8.635972	-0.000519	0.001687	-0.001242	0.946337	-0.129633	-0.213660	-0.204919
10437		4.326096	-1.316443	8.642121	-0.004763	0.003543	0.003036	0.946335	-0.129650	-0.213655	-0.204921
10438		4.314062	-1.330811	8.671611	-0.004763	0.003543	0.003036	0.946330	-0.129669	-0.213648	-0.204941
10439		4.309990	-1.348357	8.641937	-0.003268	0.003825	0.002786	0.946329	-0.129678	-0.213644	-0.204943
10440		4.313449	-1.331519	8.671807	0.000121	0.001351	0.001765	0.946323	-0.129674	-0.213654	-0.204962
10441		4.309528	-1.348671	8.642119	-0.000078	0.002870	0.002027	0.946322	-0.129668	-0.213659	-0.204965
10442		4.312889	-1.331619	8.672071	0.000899	0.004840	0.000535	0.946318	-0.129657	-0.213654	-0.204995
10443		4.334093	-1.322802	8.664598	0.002792	0.002084	-0.000237	0.946316	-0.129636	-0.213666	-0.205005
10444		4.312352	-1.331297	8.672387	0.001098	0.003321	0.000274	0.946310	-0.129627	-0.213667	-0.205038
10445		4.317584	-1.295188	8.651205	0.001219	0.004672	0.002039	0.946312	-0.129613	-0.213664	-0.205040
10446		4.317156	-1.295152	8.651424	0.000899	0.004840	0.000535	0.946311	-0.129599	-0.213660	-0.205060
10447		4.305094	-1.308943	8.681007	0.001737	0.002985	0.003281	0.946313	-0.129585	-0.213665	-0.205055
10448		4.310920	-1.331272	8.673103	-0.001893	0.002756	0.000772	0.946306	-0.129588	-0.213667	-0.205081
10449		4.316699	-1.353756	8.665198	-0.001453	0.003940	0.004040	0.946308	-0.129590	-0.213664	-0.205075
10450		4.290541	-1.321525	8.629887	-0.004106	0.005681	0.000040	0.946302	-0.129601	-0.213648	-0.205110
10451		4.331257	-1.323275	8.665944	0.002913	0.003434	0.001529	0.946304	-0.129580	-0.213653	-0.205112
10452		4.305670	-1.348906	8.644005	0.001219	0.004672	0.002039	0.946303	-0.129568	-0.213647	-0.205131
10453		4.314629	-1.295777	8.652591	-0.000717	0.003207	-0.000981	0.946299	-0.129562	-0.213650	-0.205148
10454		4.326496	-1.340318	8.636697	-0.000277	0.004390	0.002288	0.946295	-0.129559	-0.213644	-0.205173
10455		4.292360	-1.304560	8.660587	0.001219	0.004672	0.002039	0.946297	-0.129546	-0.213641	-0.205175
10456		4.335326	-1.345578	8.658924	-0.001313	0.007764	-0.000197	0.946297	-0.129538	-0.213621	-0.205202
10457		4.328589	-1.323368	8.667262	0.003154	0.006136	0.005059	0.946305	-0.129517	-0.213611	-0.205188
10458		4.312123	-1.295980	8.653810	-0.001114	0.006245	-0.000458	0.946301	-0.129512	-0.213598	-0.205223
10459		4.296219	-1.326834	8.653670	0.002714	0.004953	0.001790	0.946304	-0.129491	-0.213595	-0.205225
10460		4.320926	-1.301099	8.676069	-0.000476	0.005909	0.002549	0.946305	-0.129485	-0.213583	-0.205238
10461		4.298922	-1.309823	8.683932	0.001218	0.004671	0.002039	0.946307	-0.129471	-0.213580	-0.205240
10462		4.300851	-1.349162	8.646363	-0.001114	0.006245	-0.000459	0.946304	-0.129465	-0.213567	-0.205271
10463		4.325573	-1.323462	8.668754	0.001218	0.004671	0.002039	0.946306	-0.129451	-0.213564	-0.205273
10464		4.309188	-1.296003	8.655268	0.000063	0.006695	-0.002211	0.946304	-0.129436	-0.213551	-0.205308
10465		4.328336	-1.306147	8.699033	0.002275	0.003770	-0.001478	0.946302	-0.129415	-0.213555	-0.205326
10466		4.318100	-1.300789	8.677523	0.002515	0.006472	0.002052	0.946304	-0.129394	-0.213543	-0.205340
10467		4.302062	-1.331778	8.677422	-0.002171	0.007146	0.003058	0.946308	-0.129395	-0.213524	-0.205342
10468		4.313263	-1.318162	8.648271	-0.000596	0.004557	0.000783	0.946305	-0.129389	-0.213519	-0.205364
10469		4.322652	-1.323480	8.670208	-0.002092	0.004276	0.001032	0.946304	-0.129390	-0.213515	-0.205374
10470		4.349350	-1.279028	8.641412	-0.001972	0.005627	0.002796	0.946303	-0.129393	-0.213501	-0.205391
10471		4.305842	-1.296565	8.656849	0.000041	0.004221	0.003791	0.946305	-0.129387	-0.213498	-0.205386
10472		4.327309	-1.346475	8.662794	-0.004304	0.007200	0.000298	0.946302	-0.129397	-0.213475	-0.205419
10473		4.299091	-1.333199	8.678676	0.000160	0.005572	0.005556	0.946308	-0.129391	-0.213465	-0.205406
10474		4.322035	-1.305711	8.620165	-0.001113	0.006245	-0.000459	0.946303	-0.129388	-0.213451	-0.205446
10475		4.292031	-1.311217	8.687130	0.000239	0.002702	0.003530	0.946304	-0.129383	-0.213456	-0.205441
10476		4.313073	-1.302719	8.679733	-0.000676	0.007427	0.002809	0.946304	-0.129380	-0.213433	-0.205465
10477		4.318498	-1.325117	8.672028	-0.000994	0.007595	0.001305	0.946307	-0.129373	-0.213414	-0.205475
10478		4.308057	-1.320200	8.650555	-0.001853	0.006977	0.004561	0.946310	-0.129375	-0.213395	-0.205482
10479		4.307580	-1.320337	8.650771	0.001098	0.003320	0.000274	0.946308	-0.129361	-0.213399	-0.205492
10480		4.313183	-1.342445	8.643023	0.001680	0.008327	-0.000694	0.946311	-0.129338	-0.213380	-0.205517
10481		4.328015	-1.311302	8.643769	0.003891	0.005402	0.000040	0.946313	-0.129309	-0.213377	-0.205526
10482		4.309432	-1.302743	8.681538	0.000104	0.010915	0.001579	0.946319	-0.129293	-0.213342	-0.205544
10483		4.289564	-1.350598	8.651745	0.004010	0.006753	0.001805	0.946325	-0.129264	-0.213332	-0.205546
10484		4.292635	-1.333377	8.681844	0.000701	0.006358	0.000796	0.946323	-0.129253	-0.213319	-0.205577
10485		4.307419	-1.302388	8.682590	0.001680	0.008327	-0.000694	0.946326	-0.129231	-0.213300	-0.205593
10486		4.309213	-1.341478	8.645153	0.004010	0.006753	0.001805	0.946329	-0.129203	-0.213288	-0.205610
10487		4.324052	-1.310442	8.645883	0.000701	0.006358	0.000796	0.946332	-0.129189	-0.213277	-0.205620
10488		4.311255	-1.265798	8.662218	0.003692	0.006921	0.000301	0.946333	-0.129161	-0.213263	-0.205645
10489		4.299326	-1.337644	8.705273	0.001879	0.006807	-0.000955	0.946335	-0.129139	-0.213252	-0.205662
10490		4.300714	-1.318568	8.654456	0.000501	0.007876	0.001056	0.946337	-0.129124	-0.213233	-0.205680
10491		4.331229	-1.315138	8.669019	0.000937	0.009059	0.004325	0.946346	-0.129110	-0.213208	-0.205674
10492		4.299167	-1.318605	8.655219	0.001997	0.008158	0.000809	0.946348	-0.129089	-0.213188	-0.205699
10493		4.335851	-1.337294	8.661769	0.000501	0.007876	0.001056	0.946352	-0.129075	-0.213170	-0.205708
10494		4.328478	-1.256813	8.656828	0.000421	0.010746	0.003081	0.946358	-0.129062	-0.213134	-0.205728
10495		4.290961	-1.354661	8.677831	0.001917	0.011027	0.002834	0.946368	-0.129040	-0.213102	-0.205729
10496		4.305241	-1.265385	8.665269	0.002712	0.004952	0.001792	0.946368	-0.129020	-0.213096	-0.205746
10497		4.301271	-1.340768	8.649217	-0.001909	0.012319	0.000580	0.946375	-0.129012	-0.213054	-0.205762
10498		4.315750	-1.310120	8.650079	-0.000243	0.008609	0.006075	0.946382	-0.129006	-0.213027	-0.205762
10499		4.314866	-1.310361	8.650483	-0.001393	0.010632	0.001824	0.946389	-0.128998	-0.212993	-0.205770
10500		4.302156	-1.324231	8.680282	0.002115	0.009508	0.002574	0.946394	-0.128978	-0.212965	-0.205788
10501		4.295198	-1.301968	8.688705	0.000302	0.009395	0.001316	0.946400	-0.128963	-0.212939	-0.205797
10502		4.312290	-1.310453	8.651753	0.000619	0.009226	0.002820	0.946407	-0.128948	-0.212911	-0.205805
10503		4.283756	-1.297056	8.667726	-0.002889	0.010351	0.002069	0.946412	-0.128948	-0.212877	-0.205814
10504		4.295042	-1.341827	8.652148	-0.001076	0.010464	0.003327	0.946418	-0.128941	-0.212842	-0.205827
10505		4.309497	-1.310952	8.653069	0.003096	0.011475	0.001084	0.946428	-0.128910	-0.212809	-0.205835
10506		4.329944	-1.302400	8.646045	-0.003287	0.013388	0.002589	0.946434	-0.128912	-0.212758	-0.205860
10507		4.307329	-1.311337	8.654090	-0.001393	0.010631	0.001822	0.946441	-0.128904	-0.212724	-0.205869
10508		4.284912	-1.320250	8.662035	-0.002374	0.008663	0.003312	0.946444	-0.128905	-0.212696	-0.205882
10509		4.289756	-1.284423	8.641087	0.000419	0.010744	0.003081	0.946453	-0.128890	-0.212663	-0.205883
10510		4.277014	-1.298292	8.670870	0.000302	0.009394	0.001316	0.946458	-0.128875	-0.212636	-0.205901
10511		4.257144	-1.346207	8.641050	0.001798	0.009675	0.001070	0.946464	-0.128852	-0.212610	-0.205910
10512		4.303186	-1.311723	8.656093	0.002711	0.004950	0.001794	0.946464	-0.128833	-0.212606	-0.205927
10513		4.284667	-1.303346	8.693696	-0.002491	0.007312	0.001547	0.946467	-0.128833	-0.212587	-0.205937
10514		4.284126	-1.303460	8.693946	0.000899	0.004837	0.000535	0.946463	-0.128822	-0.212581	-0.205964
10515		4.295496	-1.289686	8.664838	-0.000796	0.006075	0.001041	0.946465	-0.128815	-0.212570	-0.205974
10516		4.283164	-1.303608	8.694398	-0.000281	0.004388	0.002285	0.946463	-0.128811	-0.212565	-0.205991
10517		4.294632	-1.290066	8.665209	-0.003274	0.003826	0.002776	0.946462	-0.128820	-0.212561	-0.205993
10518		4.278814	-1.321278	8.664892	-0.001778	0.004107	0.002530	0.946460	-0.128822	-0.212556	-0.206007
10519		4.315357	-1.282023	8.657995	-0.002292	0.005794	0.001286	0.946460	-0.128823	-0.212544	-0.206016
10520		4.299581	-1.313098	8.657675	0.000748	0.001014	0.004773	0.946458	-0.128819	-0.212555	-0.206017
10521		4.293260	-1.290934	8.665760	-0.000714	0.003206	-0.000984	0.946454	-0.128813	-0.212558	-0.206035
10522		4.302623	-1.296265	8.687702	-0.001462	0.003938	0.004034	0.946453	-0.128815	-0.212553	-0.206043
10523		4.277220	-1.322154	8.665545	0.000116	0.001350	0.001764	0.946451	-0.128810	-0.212565	-0.206046
10524		4.323573	-1.287905	8.680428	-0.000796	0.006075	0.001041	0.946450	-0.128803	-0.212553	-0.206065
10525		4.276417	-1.322412	8.665902	-0.002093	0.004275	0.001026	0.946449	-0.128804	-0.212549	-0.206075
10526		4.287901	-1.308851	8.636719	-0.001778	0.004107	0.002530	0.946447	-0.128806	-0.212543	-0.206088
10527		4.306891	-1.319441	8.680483	-0.002093	0.004275	0.001026	0.946446	-0.128808	-0.212539	-0.206098
10528		4.269235	-1.301008	8.674296	-0.004887	0.002194	0.001256	0.946438	-0.128825	-0.212541	-0.206121
10529		4.296684	-1.315082	8.658813	-0.002445	0.001970	0.005524	0.946438	-0.128835	-0.212546	-0.206109
10530		4.290312	-1.293110	8.666895	-0.000083	0.002869	0.002025	0.946436	-0.128830	-0.212548	-0.206121
10531		4.280914	-1.346349	8.658445	-0.000982	-0.001968	0.001489	0.946428	-0.128832	-0.212575	-0.206125
10532		4.284435	-1.329474	8.688242	-0.001579	0.002588	0.002270	0.946424	-0.128836	-0.212576	-0.206141
10533		4.311585	-1.285084	8.659420	-0.002877	0.000788	0.002255	0.946420	-0.128845	-0.212587	-0.206144
10534		4.298655	-1.355648	8.621104	-0.004489	-0.000843	0.000735	0.946407	-0.128866	-0.212603	-0.206173
10535		4.283930	-1.272046	8.674851	-0.000315	0.000169	-0.001504	0.946400	-0.128860	-0.212622	-0.206192
10536		4.302313	-1.339143	8.650777	-0.006852	-0.001742	0.004234	0.946389	-0.128895	-0.212638	-0.206203
10537		4.286621	-1.312023	8.636873	0.001695	-0.001238	-0.000505	0.946382	-0.128883	-0.212665	-0.206214
10538		4.274815	-1.325945	8.666153	-0.002047	-0.001068	0.005003	0.946376	-0.128894	-0.212682	-0.206216
10539		4.317973	-1.309023	8.651030	-0.002993	-0.000562	0.000490	0.946368	-0.128904	-0.212700	-0.206227
10540		4.315832	-1.328385	8.702083	-0.004174	-0.001011	0.002239	0.946358	-0.128923	-0.212716	-0.206243
10541		4.300027	-1.301452	8.688212	-0.004058	0.000339	0.004004	0.946354	-0.128941	-0.212728	-0.206239
10542		4.280497	-1.291552	8.644615	-0.002760	0.002138	0.004019	0.946353	-0.128949	-0.212731	-0.206239
10543		4.299634	-1.302296	8.688280	-0.003390	0.002475	0.001011	0.946348	-0.128958	-0.212734	-0.206250
10544		4.301919	-1.341899	8.650546	-0.001264	0.002419	0.003774	0.946346	-0.128961	-0.212737	-0.206255
10545		4.289520	-1.297635	8.666611	-0.001695	0.001238	0.000505	0.946341	-0.128963	-0.212748	-0.206266
10546		4.305109	-1.325233	8.680485	0.000548	0.002531	0.005034	0.946342	-0.128957	-0.212752	-0.206263
10547		4.304781	-1.325520	8.680603	-0.003274	0.003825	0.002775	0.946341	-0.128967	-0.212748	-0.206265
10548		4.316421	-1.312010	8.651352	-0.001380	0.001069	0.002010	0.946334	-0.128971	-0.212757	-0.206285
10549		4.276602	-1.312372	8.696309	-0.000281	0.004387	0.002286	0.946335	-0.128965	-0.212753	-0.206287
10550		4.288155	-1.298736	8.667121	-0.001579	0.002587	0.002270	0.946332	-0.128966	-0.212756	-0.206298
10551		4.284262	-1.316018	8.637436	-0.002093	0.004275	0.001026	0.946330	-0.128968	-0.212752	-0.206308
10552		4.293640	-1.321597	8.659330	-0.004257	0.001857	0.004264	0.946325	-0.128987	-0.212753	-0.206318
10553		4.283717	-1.316728	8.637598	-0.000082	0.002868	0.002025	0.946324	-0.128981	-0.212757	-0.206321
10554		4.299222	-1.344256	8.651521	-0.000082	0.002868	0.002025	0.946323	-0.128974	-0.212760	-0.206329
10555		4.314301	-1.313634	8.652163	-0.003788	0.005513	0.001531	0.946322	-0.128983	-0.212748	-0.206339
10556		4.304186	-1.308751	8.630530	-0.002092	0.004275	0.001026	0.946319	-0.128984	-0.212742	-0.206358
10557		4.285826	-1.300690	8.667980	-0.005086	0.003714	0.001515	0.946316	-0.129001	-0.212737	-0.206368
10558		4.295154	-1.306410	8.689878	-0.004771	0.003544	0.003020	0.946311	-0.129020	-0.212730	-0.206387
10559		4.303207	-1.310147	8.630807	-0.004887	0.002195	0.001255	0.946305	-0.129037	-0.212733	-0.206398
10560		4.300517	-1.271310	8.668639	-0.002248	0.000450	0.005262	0.946302	-0.129048	-0.212744	-0.206397
10561		4.291006	-1.324915	8.660129	-0.006698	0.002084	-0.000005	0.946294	-0.129072	-0.212746	-0.206416
10562		4.312370	-1.316770	8.652649	-0.003076	0.002306	0.002515	0.946287	-0.129084	-0.212747	-0.206436
10563		4.290509	-1.325851	8.660232	-0.004771	0.003544	0.003020	0.946286	-0.129101	-0.212743	-0.206439
10564		4.321449	-1.322820	8.674620	-0.001579	0.002587	0.002270	0.946281	-0.129105	-0.212744	-0.206455
10565		4.289890	-1.326469	8.660444	-0.002092	0.004275	0.001027	0.946280	-0.129106	-0.212740	-0.206465
10566		4.283400	-1.304491	8.668608	-0.001463	0.003936	0.004035	0.946280	-0.129107	-0.212736	-0.206467
10567		4.292753	-1.310032	8.690519	-0.003076	0.002306	0.002514	0.946277	-0.129117	-0.212740	-0.206470
10568		4.298681	-1.332671	8.682531	-0.002248	0.000449	0.005262	0.946275	-0.129127	-0.212749	-0.206466
10569		4.313905	-1.302172	8.683109	-0.001463	0.003936	0.004035	0.946276	-0.129129	-0.212746	-0.206461
10570		4.276281	-1.283784	8.676895	-0.006698	0.002084	-0.000006	0.946265	-0.129155	-0.212746	-0.206495
10571		4.297845	-1.333825	8.682768	-0.000281	0.004386	0.002287	0.946266	-0.129149	-0.212743	-0.206497
10572		4.303270	-1.298021	8.661627	-0.003274	0.003825	0.002775	0.946261	-0.129161	-0.212736	-0.206519
10573		4.299476	-1.315407	8.631865	-0.003192	0.000957	0.000749	0.946255	-0.129171	-0.212747	-0.206530
10574		4.318558	-1.326113	8.675557	-0.001778	0.004105	0.002531	0.946251	-0.129176	-0.212740	-0.206552
10575		4.298986	-1.315907	8.632034	-0.001695	0.001238	0.000505	0.946246	-0.129178	-0.212751	-0.206563
10576		4.290315	-1.312918	8.691287	-0.002291	0.005793	0.001287	0.946245	-0.129179	-0.212738	-0.206582
10577		4.307874	-1.321606	8.654151	-0.001463	0.003935	0.004035	0.946246	-0.129181	-0.212735	-0.206577
10578		4.307620	-1.321841	8.654242	-0.001695	0.001238	0.000505	0.946238	-0.129185	-0.212743	-0.206603
10579		4.295400	-1.336041	8.683637	-0.004970	0.005062	0.003280	0.946238	-0.129201	-0.212731	-0.206605
10580		4.297231	-1.317413	8.632677	-0.001778	0.004105	0.002531	0.946236	-0.129205	-0.212725	-0.206622
10581		4.290823	-1.295510	8.640799	-0.002762	0.002136	0.004018	0.946234	-0.129214	-0.212729	-0.206617
10582		4.327915	-1.314762	8.647154	-0.002762	0.002136	0.004018	0.946230	-0.129225	-0.212730	-0.206626
10583		4.284439	-1.332348	8.662240	-0.001464	0.003935	0.004035	0.946232	-0.129227	-0.212727	-0.206621
10584		4.299528	-1.301668	8.662937	-0.000909	0.004725	-0.000722	0.946228	-0.129222	-0.212720	-0.206652
10585		4.305361	-1.324053	8.655027	-0.001067	0.000898	0.003513	0.946226	-0.129225	-0.212732	-0.206647
10586		4.299088	-1.302122	8.663087	-0.003076	0.002306	0.002514	0.946221	-0.129235	-0.212734	-0.206662
10587		4.277284	-1.311180	8.670619	-0.004573	0.002026	0.002757	0.946217	-0.129252	-0.212737	-0.206665
10588		4.336027	-1.321775	8.669461	-0.001381	0.001068	0.002009	0.946212	-0.129254	-0.212749	-0.206675
10589		4.276865	-1.311774	8.670736	-0.001778	0.004105	0.002531	0.946212	-0.129255	-0.212745	-0.206677
10590		4.310325	-1.347941	8.647316	-0.003390	0.002476	0.001009	0.946205	-0.129266	-0.212747	-0.206702
10591		4.297910	-1.303817	8.663417	-0.003076	0.002306	0.002514	0.946202	-0.129276	-0.212750	-0.206704
10592		4.315564	-1.312535	8.626241	-0.002290	0.005793	0.001288	0.946199	-0.129279	-0.212736	-0.206729
10593		4.297083	-1.304371	8.663744	-0.002092	0.004274	0.001027	0.946198	-0.129280	-0.212732	-0.206739
10594		4.296699	-1.304596	8.663900	-0.002092	0.004274	0.001027	0.946195	-0.129281	-0.212727	-0.206756
10595		4.284395	-1.318800	8.693317	-0.005086	0.003714	0.001513	0.946192	-0.129297	-0.212722	-0.206767
10596		4.296031	-1.305243	8.664134	-0.000397	0.003036	0.000522	0.946187	-0.129293	-0.212723	-0.206790
10597		4.280299	-1.336361	8.663668	-0.004887	0.002196	0.001252	0.946182	-0.129310	-0.212726	-0.206800
10598		4.285921	-1.300638	8.642461	-0.001580	0.002586	0.002270	0.946177	-0.129314	-0.212728	-0.206818
10599		4.299154	-1.347323	8.707425	0.000115	0.001348	0.001765	0.946175	-0.129308	-0.212740	-0.206821
10600		4.322775	-1.319700	8.648973	-0.000909	0.004725	-0.000721	0.946171	-0.129301	-0.212736	-0.206844
10601		4.322298	-1.319838	8.649190	0.000148	0.005562	0.005557	0.946177	-0.129295	-0.212726	-0.206831
10602		4.276226	-1.297830	8.702170	0.000671	0.002139	-0.002991	0.946168	-0.129283	-0.212734	-0.206871
10603		4.327720	-1.342199	8.641484	-0.003787	0.005512	0.001531	0.946168	-0.129292	-0.212722	-0.206881
10604		4.289959	-1.323670	8.635337	-0.001778	0.004104	0.002531	0.946164	-0.129296	-0.212716	-0.206901
10605		4.318246	-1.281306	8.687693	-0.001778	0.004104	0.002531	0.946164	-0.129298	-0.212713	-0.206904
10606		4.283398	-1.360329	8.656856	-0.003077	0.002306	0.002513	0.946160	-0.129307	-0.212715	-0.206913
10607		4.292350	-1.307501	8.665618	-0.000991	0.007591	0.001306	0.946163	-0.129300	-0.212696	-0.206923
10608		4.276390	-1.338518	8.665266	-0.001894	0.002756	0.000765	0.946159	-0.129301	-0.212698	-0.206939
10609		4.272669	-1.355706	8.635488	-0.001695	0.001238	0.000504	0.946154	-0.129303	-0.212710	-0.206950
10610		4.307074	-1.335381	8.679843	0.003141	0.006122	0.005072	0.946158	-0.129284	-0.212698	-0.206953
10611		4.297002	-1.330061	8.658260	0.000787	0.003487	-0.001225	0.946155	-0.129271	-0.212702	-0.206971
10612		4.296635	-1.329903	8.658466	0.002399	0.005115	0.000297	0.946155	-0.129249	-0.212698	-0.206990
10613		4.315312	-1.281980	8.689051	-0.000397	0.003036	0.000522	0.946153	-0.129243	-0.212701	-0.207000
10614		4.289845	-1.307685	8.666831	-0.000282	0.004384	0.002288	0.946153	-0.129237	-0.212697	-0.207008
10615		4.305358	-1.335218	8.680719	0.000000	0.000000	0.000000	0.946153	-0.129237	-0.212697	-0.207008
10616		4.295532	-1.330009	8.658997	-0.000908	0.004725	-0.000721	0.946148	-0.129232	-0.212691	-0.207039
10617		4.304874	-1.335247	8.680954	0.001925	0.001458	0.003027	0.946148	-0.129219	-0.212704	-0.207034
10618		4.288780	-1.307692	8.667357	0.002514	0.006462	0.002063	0.946151	-0.129198	-0.212693	-0.207048
10619		4.310013	-1.299035	8.660083	-0.000198	0.001518	0.000261	0.946146	-0.129193	-0.212704	-0.207058
10620		4.266676	-1.316225	8.675080	0.001612	0.001628	0.001523	0.946144	-0.129179	-0.212715	-0.207065
10621		4.319418	-1.304278	8.682009	-0.001497	-0.000280	0.000243	0.946137	-0.129181	-0.212734	-0.207076
10622		4.325451	-1.326621	8.674003	0.000115	0.001348	0.001765	0.946132	-0.129178	-0.212743	-0.207094
10623		4.297696	-1.313001	8.689514	-0.000313	0.000170	-0.001504	0.946125	-0.129172	-0.212761	-0.207112
10624		4.294229	-1.330032	8.659640	0.001138	-0.002029	0.004252	0.946119	-0.129169	-0.212787	-0.207111
10625		4.299957	-1.293969	8.638454	0.000902	0.004834	0.000540	0.946120	-0.129155	-0.212784	-0.207121
10626		4.309369	-1.299155	8.660386	-0.000313	0.000170	-0.001504	0.946112	-0.129149	-0.212801	-0.207145
10627		4.309278	-1.299048	8.660447	0.003422	0.001738	0.002784	0.946113	-0.129128	-0.212814	-0.207140
10628		4.297074	-1.312824	8.689848	-0.000396	0.003036	0.000522	0.946110	-0.129121	-0.212818	-0.207152
10629		4.296801	-1.312900	8.689972	-0.000083	0.002866	0.002026	0.946109	-0.129115	-0.212823	-0.207155
10630		4.308581	-1.299214	8.660769	-0.001382	0.001068	0.002008	0.946103	-0.129118	-0.212833	-0.207169
10631		4.298957	-1.352253	8.652301	0.001972	0.003937	-0.002972	0.946100	-0.129097	-0.212837	-0.207194
10632		4.286472	-1.307618	8.668510	0.001727	0.002976	0.003288	0.946099	-0.129085	-0.212839	-0.207202
10633		4.286374	-1.307567	8.668566	0.002321	-0.001579	0.002505	0.946096	-0.129073	-0.212867	-0.207197
10634		4.313922	-1.321271	8.653152	-0.002092	0.004274	0.001025	0.946092	-0.129075	-0.212861	-0.207220
10635		4.282368	-1.324731	8.638941	0.001414	0.003146	0.001784	0.946092	-0.129062	-0.212866	-0.207222
10636		4.307274	-1.299130	8.661431	0.000115	0.001348	0.001765	0.946090	-0.129055	-0.212877	-0.207226
10637		4.322765	-1.326595	8.675346	0.001101	0.003316	0.000279	0.946088	-0.129041	-0.212881	-0.207236
10638		4.281710	-1.324654	8.639279	0.001612	0.001628	0.001523	0.946085	-0.129029	-0.212891	-0.207249
10639		4.334284	-1.312555	8.646333	0.002911	0.003426	0.001541	0.946086	-0.129008	-0.212896	-0.207251
10640		4.294380	-1.312684	8.691201	0.000115	0.001348	0.001765	0.946081	-0.129004	-0.212906	-0.207267
10641		4.290595	-1.329841	8.661470	-0.002092	0.004274	0.001025	0.946080	-0.129006	-0.212902	-0.207277
10642		4.305835	-1.299056	8.662158	0.001299	0.001798	0.000018	0.946075	-0.128993	-0.212913	-0.207296
10643		4.302186	-1.316183	8.632365	-0.002880	0.000788	0.002250	0.946070	-0.129003	-0.212924	-0.207299
10644		4.317694	-1.343789	8.646251	0.001101	0.003316	0.000279	0.946069	-0.128988	-0.212927	-0.207312
10645		4.283578	-1.307956	8.669889	-0.002404	0.004445	-0.000480	0.946066	-0.128989	-0.212922	-0.207330
10646		4.304782	-1.299531	8.662610	0.000031	0.004214	0.003791	0.946066	-0.128985	-0.212917	-0.207337
10647		4.279393	-1.325340	8.640322	-0.001070	0.000898	0.003512	0.946064	-0.128987	-0.212929	-0.207333
10648		4.320004	-1.327289	8.676615	0.001101	0.003316	0.000279	0.946060	-0.128975	-0.212931	-0.207354
10649		4.272759	-1.303248	8.648582	-0.002092	0.004274	0.001025	0.946059	-0.128976	-0.212927	-0.207364
10650		4.309751	-1.322427	8.655054	-0.003078	0.002306	0.002511	0.946055	-0.128986	-0.212929	-0.207374
10651		4.291399	-1.314181	8.692447	0.001414	0.003145	0.001784	0.946055	-0.128972	-0.212933	-0.207376
10652		4.281441	-1.308984	8.670790	-0.000282	0.004384	0.002287	0.946054	-0.128968	-0.212928	-0.207391
10653		4.330406	-1.314212	8.648024	-0.001581	0.002586	0.002268	0.946052	-0.128969	-0.212932	-0.207393
10654		4.292936	-1.295601	8.641701	-0.003193	0.000959	0.000745	0.946045	-0.128979	-0.212942	-0.207412
10655		4.308509	-1.323286	8.655541	0.000427	0.001177	0.003270	0.946044	-0.128974	-0.212954	-0.207407
10656		4.292622	-1.295957	8.641804	-0.001893	0.002756	0.000764	0.946038	-0.128977	-0.212956	-0.207429
10657		4.311569	-1.306539	8.685569	-0.000709	0.003206	-0.000983	0.946034	-0.128971	-0.212959	-0.207447
10658		4.301529	-1.301593	8.663916	-0.005482	0.006751	0.002030	0.946032	-0.128989	-0.212937	-0.207470
10659		4.289205	-1.315657	8.693307	0.001810	0.000109	0.001262	0.946028	-0.128976	-0.212957	-0.207472
10660		4.313013	-1.288050	8.634865	-0.002092	0.004274	0.001024	0.946024	-0.128980	-0.212950	-0.207497
10661		4.285177	-1.333040	8.663660	-0.002766	0.002136	0.004015	0.946023	-0.128989	-0.212954	-0.207493
10662		4.310040	-1.307677	8.686157	-0.000396	0.003036	0.000522	0.946018	-0.128985	-0.212956	-0.207516
10663		4.312123	-1.288763	8.635203	-0.001779	0.004104	0.002529	0.946018	-0.128987	-0.212952	-0.207518
10664		4.305936	-1.325004	8.656558	0.000114	0.001347	0.001765	0.946014	-0.128982	-0.212962	-0.207530
10665		4.303230	-1.285877	8.694465	-0.001695	0.001238	0.000503	0.946009	-0.128984	-0.212973	-0.207541
10666		4.305690	-1.325328	8.656631	-0.001071	0.000897	0.003512	0.946005	-0.128987	-0.212984	-0.207544
10667		4.299349	-1.303320	8.664738	-0.002091	0.004274	0.001024	0.946004	-0.128988	-0.212980	-0.207554
10668		4.311137	-1.348049	8.648859	-0.001779	0.004104	0.002529	0.946001	-0.128991	-0.212974	-0.207568
10669		4.277038	-1.312367	8.672451	-0.002206	0.002927	-0.000741	0.945997	-0.128993	-0.212977	-0.207586
10670		4.304418	-1.326228	8.657126	-0.001779	0.004104	0.002529	0.945995	-0.128995	-0.212972	-0.207598
10671		4.307593	-1.309390	8.687113	-0.000396	0.003036	0.000522	0.945993	-0.128989	-0.212976	-0.207608
10672		4.266461	-1.307583	8.651037	-0.000282	0.004383	0.002287	0.945992	-0.128984	-0.212970	-0.207620
10673		4.309439	-1.348894	8.649574	-0.002091	0.004274	0.001024	0.945990	-0.128985	-0.212966	-0.207630
10674		4.303077	-1.326746	8.657713	0.001923	0.001456	0.003028	0.945988	-0.128973	-0.212978	-0.207636
10675		4.275106	-1.313170	8.673282	-0.002403	0.004445	-0.000480	0.945985	-0.128974	-0.212973	-0.207653
10676		4.318008	-1.296091	8.658571	-0.000708	0.003206	-0.000983	0.945980	-0.128969	-0.212976	-0.207680
10677		4.302146	-1.326996	8.658138	-0.000282	0.004383	0.002287	0.945981	-0.128963	-0.212973	-0.207682
10678		4.320830	-1.279256	8.688734	-0.000396	0.003036	0.000522	0.945976	-0.128958	-0.212974	-0.207702
10679		4.323147	-1.318571	8.650992	-0.000084	0.002865	0.002026	0.945976	-0.128952	-0.212979	-0.207705
10680		4.300988	-1.269051	8.645361	-0.001666	0.005451	0.004294	0.945978	-0.128954	-0.212967	-0.207707
10681		4.291093	-1.322403	8.636935	-0.002091	0.004274	0.001024	0.945976	-0.128955	-0.212963	-0.207717
10682		4.303862	-1.310955	8.688726	-0.003079	0.002306	0.002509	0.945971	-0.128966	-0.212964	-0.207732
10683		4.293970	-1.306026	8.666998	-0.001780	0.004103	0.002528	0.945971	-0.128968	-0.212961	-0.207735
10684		4.293584	-1.306270	8.667153	-0.002091	0.004274	0.001024	0.945968	-0.128969	-0.212956	-0.207751
10685		4.271660	-1.315159	8.674678	-0.003079	0.002306	0.002509	0.945966	-0.128978	-0.212960	-0.207754
10686		4.292954	-1.306819	8.667382	-0.000282	0.004383	0.002287	0.945965	-0.128973	-0.212954	-0.207765
10687		4.298646	-1.329216	8.659535	-0.002403	0.004445	-0.000481	0.945962	-0.128974	-0.212949	-0.207782
10688		4.301877	-1.312352	8.689498	0.000114	0.001347	0.001765	0.945956	-0.128972	-0.212958	-0.207803
10689		4.304076	-1.293445	8.638517	-0.001468	0.003932	0.004033	0.945958	-0.128974	-0.212955	-0.207798
10690		4.291721	-1.307621	8.667872	-0.003079	0.002306	0.002509	0.945953	-0.128984	-0.212956	-0.207810
10691		4.297562	-1.330168	8.659927	-0.001582	0.002585	0.002268	0.945952	-0.128986	-0.212960	-0.207813
10692		4.297300	-1.330314	8.660035	-0.000396	0.003036	0.000522	0.945948	-0.128980	-0.212963	-0.207831
10693		4.312562	-1.299561	8.660765	-0.000084	0.002865	0.002026	0.945947	-0.128975	-0.212967	-0.207833
10694		4.320770	-1.302749	8.601833	0.001215	0.004662	0.002046	0.945948	-0.128961	-0.212963	-0.207843
10695		4.317939	-1.321900	8.653085	0.000227	0.002694	0.003531	0.945948	-0.128956	-0.212968	-0.207838
10696		4.283697	-1.286258	8.676717	-0.004296	0.007201	0.000282	0.945949	-0.128961	-0.212948	-0.207851
10697		4.310875	-1.300080	8.661527	0.000904	0.004833	0.000542	0.945950	-0.128947	-0.212944	-0.207861
10698		4.316610	-1.322343	8.653680	-0.000085	0.002865	0.002026	0.945948	-0.128941	-0.212947	-0.207870
10699		4.291991	-1.291853	8.699133	-0.002601	0.005963	-0.000220	0.945947	-0.128942	-0.212935	-0.207887
10700		4.294122	-1.331182	8.661478	0.001215	0.004662	0.002046	0.945948	-0.128928	-0.212932	-0.207896
10701		4.287686	-1.308959	8.669666	-0.000396	0.003036	0.000522	0.945945	-0.128922	-0.212936	-0.207906
10702		4.287403	-1.308964	8.669805	0.001413	0.003144	0.001785	0.945943	-0.128910	-0.212938	-0.207920
10703		4.296749	-1.314230	8.691751	0.000113	0.001347	0.001765	0.945941	-0.128905	-0.212950	-0.207923
10704		4.292892	-1.272949	8.648811	-0.000905	0.004724	-0.000722	0.945938	-0.128897	-0.212946	-0.207944
10705		4.286789	-1.309148	8.670082	-0.000678	-0.002139	0.002989	0.945933	-0.128900	-0.212973	-0.207939
10706		4.317910	-1.305962	8.684530	-0.000085	0.002865	0.002026	0.945931	-0.128894	-0.212976	-0.207948
10707		4.296029	-1.314653	8.692043	-0.002516	0.003098	-0.002247	0.945925	-0.128896	-0.212979	-0.207973
10708		4.329548	-1.292465	8.655450	-0.002882	0.000788	0.002247	0.945920	-0.128905	-0.212989	-0.207980
10709		4.304274	-1.318304	8.633037	-0.001893	0.002756	0.000762	0.945916	-0.128906	-0.212992	-0.207990
10710		4.329124	-1.292953	8.655589	-0.001583	0.002585	0.002267	0.945916	-0.128905	-0.212996	-0.207990
10711		4.322943	-1.329206	8.676884	0.000424	0.001176	0.003270	0.945915	-0.128900	-0.213008	-0.207985
10712		4.313112	-1.324023	8.655167	-0.000905	0.004724	-0.000722	0.945911	-0.128894	-0.213003	-0.208012
10713		4.316189	-1.307214	8.685198	-0.001470	0.003932	0.004032	0.945912	-0.128896	-0.213000	-0.208007
10714		4.306243	-1.302217	8.663510	-0.002091	0.004274	0.001023	0.945908	-0.128899	-0.212994	-0.208030
10715		4.312005	-1.324709	8.655614	-0.001272	0.002414	0.003772	0.945908	-0.128901	-0.212998	-0.208025
10716		4.274417	-1.306053	8.649305	-0.001780	0.004103	0.002528	0.945907	-0.128903	-0.212993	-0.208034
10717		4.332924	-1.316641	8.648496	-0.002091	0.004274	0.001023	0.945905	-0.128905	-0.212989	-0.208044
10718		4.314437	-1.308400	8.685890	-0.000085	0.002864	0.002026	0.945904	-0.128898	-0.212993	-0.208051
10719		4.273506	-1.306605	8.649671	-0.001385	0.001067	0.002006	0.945900	-0.128900	-0.213005	-0.208054
10720		4.304499	-1.303528	8.664180	-0.001272	0.002414	0.003771	0.945900	-0.128902	-0.213008	-0.208053
10721		4.304043	-1.303805	8.664365	-0.002487	0.007309	0.001545	0.945902	-0.128902	-0.212989	-0.208062
10722		4.284506	-1.293567	8.620851	-0.003702	0.002649	-0.000502	0.945894	-0.128913	-0.212989	-0.208091
10723		4.297369	-1.340430	8.685830	-0.001893	0.002756	0.000762	0.945891	-0.128915	-0.212993	-0.208101
10724		4.309189	-1.326732	8.656706	-0.000085	0.002864	0.002026	0.945888	-0.128910	-0.212996	-0.208112
10725		4.287138	-1.277071	8.651057	-0.000594	0.004553	0.000783	0.945888	-0.128903	-0.212992	-0.208122
10726		4.317991	-1.332173	8.678894	-0.000594	0.004553	0.000783	0.945885	-0.128898	-0.212986	-0.208142
10727		4.292478	-1.299488	8.643380	-0.000085	0.002864	0.002026	0.945885	-0.128892	-0.212990	-0.208144
10728		4.317404	-1.274333	8.665885	-0.005258	-0.000112	0.005736	0.945881	-0.128918	-0.212999	-0.208138
10729		4.317334	-1.333164	8.679069	-0.003702	0.002649	-0.000503	0.945875	-0.128927	-0.213002	-0.208156
10730		4.301401	-1.305954	8.665353	-0.001470	0.003931	0.004032	0.945874	-0.128931	-0.212996	-0.208162
10731		4.297747	-1.323185	8.635542	-0.000877	-0.000622	0.003250	0.945870	-0.128933	-0.213016	-0.208158
10732		4.319192	-1.314848	8.628218	-0.001781	0.004103	0.002528	0.945869	-0.128935	-0.213011	-0.208167
10733		4.300625	-1.306625	8.665637	-0.000593	0.004553	0.000783	0.945869	-0.128929	-0.213008	-0.208177
10734		4.275122	-1.332276	8.643335	-0.000283	0.004381	0.002287	0.945869	-0.128923	-0.213003	-0.208186
10735		4.303222	-1.290035	8.695876	-0.003476	0.005341	0.003028	0.945869	-0.128932	-0.212991	-0.208188
10736		4.277675	-1.315820	8.673572	-0.000903	0.004724	-0.000722	0.945867	-0.128924	-0.212986	-0.208208
10737		4.326689	-1.320985	8.650954	-0.000085	0.002864	0.002027	0.945866	-0.128919	-0.212990	-0.208211
10738		4.302075	-1.290404	8.696388	0.001525	0.004489	0.003552	0.945869	-0.128906	-0.212986	-0.208213
10739		4.304355	-1.329726	8.658652	-0.001893	0.002756	0.000762	0.945865	-0.128907	-0.212990	-0.208223
10740		4.288480	-1.302356	8.644933	-0.000085	0.002864	0.002027	0.945864	-0.128901	-0.212993	-0.208230
10741		4.325399	-1.321478	8.651524	-0.001781	0.004102	0.002527	0.945864	-0.128903	-0.212990	-0.208232
10742		4.297353	-1.307967	8.667057	-0.000395	0.003035	0.000522	0.945860	-0.128898	-0.212992	-0.208252
10743		4.299601	-1.288988	8.616129	-0.002091	0.004274	0.001022	0.945858	-0.128899	-0.212988	-0.208262
10744		4.296630	-1.308282	8.667369	-0.000283	0.004381	0.002287	0.945857	-0.128895	-0.212983	-0.208277
10745		4.286753	-1.303154	8.645669	0.000535	0.002520	0.005036	0.945859	-0.128890	-0.212988	-0.208264
10746		4.302161	-1.330841	8.659570	-0.001696	0.001239	0.000501	0.945852	-0.128893	-0.212997	-0.208285
10747		4.305486	-1.313991	8.689486	0.000112	0.001346	0.001766	0.945850	-0.128888	-0.213009	-0.208288
10748		4.317470	-1.300262	8.660314	-0.001696	0.001239	0.000501	0.945844	-0.128890	-0.213019	-0.208303
10749		4.323354	-1.322637	8.652369	-0.000085	0.002863	0.002027	0.945843	-0.128884	-0.213023	-0.208306
10750		4.310927	-1.278226	8.668536	-0.000395	0.003035	0.000522	0.945838	-0.128881	-0.213024	-0.208330
10751		4.316654	-1.300490	8.660686	0.001215	0.004660	0.002048	0.945840	-0.128867	-0.213021	-0.208333
10752		4.325917	-1.305931	8.682644	-0.002884	0.000789	0.002245	0.945835	-0.128876	-0.213032	-0.208338
10753		4.263414	-1.371451	8.666854	-0.007463	0.002816	0.004990	0.945833	-0.128908	-0.213027	-0.208333
10754		4.315879	-1.301559	8.660912	0.002291	0.003764	-0.001462	0.945830	-0.128886	-0.213030	-0.208354
10755		4.287810	-1.287904	8.676468	-0.001471	0.003930	0.004032	0.945832	-0.128888	-0.213027	-0.208349
10756		4.321285	-1.324072	8.653183	-0.001893	0.002756	0.000761	0.945827	-0.128890	-0.213030	-0.208366
10757		4.271668	-1.319197	8.676019	-0.001274	0.002413	0.003771	0.945827	-0.128892	-0.213034	-0.208361
10758		4.330354	-1.329757	8.675199	0.000112	0.001346	0.001766	0.945822	-0.128888	-0.213045	-0.208375
10759		4.299061	-1.333160	8.660754	-0.001696	0.001239	0.000500	0.945817	-0.128890	-0.213056	-0.208385
10760		4.304848	-1.297215	8.639672	-0.000283	0.004381	0.002288	0.945816	-0.128885	-0.213051	-0.208397
10761		4.292420	-1.310928	8.669055	0.004296	0.002353	-0.000457	0.945815	-0.128857	-0.213064	-0.208406
10762		4.313769	-1.302317	8.661849	-0.001472	0.003930	0.004032	0.945817	-0.128857	-0.213060	-0.208403
10763		4.307361	-1.280271	8.670007	-0.000086	0.002863	0.002027	0.945816	-0.128852	-0.213064	-0.208406
10764		4.313182	-1.302750	8.662076	-0.003082	0.002306	0.002505	0.945812	-0.128862	-0.213066	-0.208417
10765		4.322534	-1.308393	8.683958	-0.002884	0.000789	0.002244	0.945807	-0.128872	-0.213077	-0.208420
10766		4.281678	-1.306682	8.647651	-0.001584	0.002585	0.002266	0.945805	-0.128873	-0.213080	-0.208425
10767		4.318657	-1.325918	8.654213	-0.000965	0.002241	0.005275	0.945807	-0.128875	-0.213085	-0.208412
10768		4.275050	-1.284682	8.655911	0.004099	0.003870	-0.000196	0.945807	-0.128846	-0.213089	-0.208427
10769		4.318060	-1.325720	8.654541	-0.000704	0.003207	-0.000983	0.945803	-0.128840	-0.213092	-0.208444
10770		4.295953	-1.334433	8.662100	-0.002486	0.007309	0.001544	0.945804	-0.128841	-0.213072	-0.208460
10771		4.301687	-1.298502	8.641053	0.000309	-0.000172	0.001505	0.945800	-0.128836	-0.213091	-0.208463
10772		4.279958	-1.307027	8.648450	0.001301	0.001796	0.000022	0.945793	-0.128827	-0.213099	-0.208492
10773		4.310838	-1.303736	8.663095	-0.000593	0.004552	0.000783	0.945792	-0.128820	-0.213096	-0.208502
10774		4.288774	-1.312312	8.670650	0.000906	0.004831	0.000544	0.945791	-0.128808	-0.213091	-0.208520
10775		4.322223	-1.348241	8.647431	-0.000395	0.003035	0.000522	0.945789	-0.128802	-0.213095	-0.208530
10776		4.309736	-1.303841	8.663627	-0.000283	0.004380	0.002287	0.945789	-0.128796	-0.213090	-0.208538
10777		4.299887	-1.298666	8.641924	-0.000086	0.002863	0.002026	0.945788	-0.128790	-0.213095	-0.208540
10778		4.293526	-1.334673	8.663266	0.002292	0.003764	-0.001461	0.945785	-0.128768	-0.213098	-0.208562
10779		4.308800	-1.303732	8.664109	0.001721	0.002970	0.003292	0.945787	-0.128755	-0.213104	-0.208557
10780		4.286928	-1.312322	8.671561	0.000112	0.001346	0.001766	0.945782	-0.128752	-0.213113	-0.208573
10781		4.317958	-1.309164	8.686118	-0.001696	0.001239	0.000500	0.945777	-0.128754	-0.213124	-0.208584
10782		4.286677	-1.312537	8.671652	-0.000198	0.001517	0.000261	0.945772	-0.128748	-0.213135	-0.208597
10783		4.308186	-1.303917	8.664387	0.000992	0.001968	-0.001483	0.945768	-0.128734	-0.213146	-0.208614
10784		4.329554	-1.295383	8.657180	0.000335	0.004037	0.005297	0.945770	-0.128730	-0.213141	-0.208611
10785		4.307559	-1.304051	8.664678	-0.000704	0.003207	-0.000983	0.945766	-0.128724	-0.213145	-0.208629
10786		4.307171	-1.304314	8.664832	-0.002859	0.004997	0.006035	0.945769	-0.128734	-0.213132	-0.208624
10787		4.291206	-1.335488	8.664290	-0.001584	0.002585	0.002265	0.945767	-0.128736	-0.213136	-0.208626
10788		4.306589	-1.304855	8.665040	0.000420	0.001174	0.003270	0.945765	-0.128732	-0.213147	-0.208628
10789		4.321964	-1.332538	8.678956	-0.001893	0.002757	0.000760	0.945762	-0.128733	-0.213150	-0.208638
10790		4.308801	-1.286071	8.614148	-0.001893	0.002757	0.000760	0.945756	-0.128737	-0.213151	-0.208660
10791		4.290299	-1.277763	8.651489	0.001721	0.002969	0.003293	0.945758	-0.128724	-0.213156	-0.208655
10792		4.305616	-1.305532	8.665421	-0.004890	0.002200	0.001238	0.945750	-0.128743	-0.213157	-0.208677
10793		4.336583	-1.302486	8.680003	0.001918	0.001452	0.003032	0.945750	-0.128731	-0.213169	-0.208672
10794		4.311182	-1.269899	8.644434	-0.002860	0.004997	0.006035	0.945753	-0.128739	-0.213158	-0.208663
10795		4.304576	-1.306369	8.665812	-0.002288	0.005791	0.001282	0.945754	-0.128740	-0.213146	-0.208673
10796		4.319723	-1.275878	8.666669	-0.003589	0.003996	0.001259	0.945750	-0.128750	-0.213141	-0.208690
10797		4.282023	-1.315490	8.673504	-0.000481	0.005897	0.002548	0.945753	-0.128743	-0.213130	-0.208692
10798		4.324794	-1.298554	8.659084	-0.000172	0.005725	0.004053	0.945756	-0.128738	-0.213118	-0.208694
10799		4.308649	-1.329434	8.658660	0.000709	0.006348	0.000805	0.945758	-0.128724	-0.213108	-0.208703
10800		4.314997	-1.295612	8.718655	0.000334	0.004036	0.005297	0.945760	-0.128721	-0.213102	-0.208703
10801		4.307644	-1.329901	8.659089	-0.005482	0.006752	0.002019	0.945760	-0.128737	-0.213083	-0.208713
10802		4.313228	-1.294102	8.638132	0.001523	0.004486	0.003554	0.945761	-0.128725	-0.213079	-0.208718
10803		4.309991	-1.313391	8.689436	-0.002485	0.007309	0.001542	0.945763	-0.128725	-0.213060	-0.208728
10804		4.296515	-1.325405	8.637920	-0.003478	0.005341	0.003024	0.945762	-0.128736	-0.213046	-0.208740
10805		4.296003	-1.325766	8.638119	-0.001979	0.005619	0.002786	0.945764	-0.128737	-0.213035	-0.208742
10806		4.310991	-1.295116	8.639096	0.000512	0.007864	0.001066	0.945766	-0.128724	-0.213015	-0.208760
10807		4.313709	-1.278149	8.669330	0.000203	0.008037	-0.000439	0.945769	-0.128709	-0.212996	-0.208777
10808		4.294016	-1.326004	8.639070	-0.000062	0.007070	0.005818	0.945775	-0.128703	-0.212977	-0.208771
10809		4.296967	-1.309331	8.669140	-0.003700	0.002651	-0.000508	0.945769	-0.128712	-0.212980	-0.208789
10810		4.293199	-1.326645	8.639378	-0.003478	0.005341	0.003024	0.945770	-0.128720	-0.212968	-0.208794
10811		4.311702	-1.337569	8.683285	-0.002090	0.004274	0.001020	0.945768	-0.128722	-0.212964	-0.208804
10812		4.292432	-1.268857	8.626559	-0.002090	0.004274	0.001020	0.945767	-0.128722	-0.212959	-0.208817
10813		4.291932	-1.327524	8.639872	-0.003478	0.005341	0.003024	0.945767	-0.128731	-0.212948	-0.208819
10814		4.301024	-1.333157	8.661878	-0.001585	0.002584	0.002264	0.945764	-0.128734	-0.212950	-0.208830
10815		4.279042	-1.283677	8.656188	-0.003786	0.005513	0.001519	0.945763	-0.128743	-0.212938	-0.208840
10816		4.300199	-1.333691	8.662206	-0.000900	0.004724	-0.000723	0.945761	-0.128737	-0.212933	-0.208862
10817		4.305921	-1.297592	8.641253	0.000906	0.004829	0.000545	0.945761	-0.128723	-0.212930	-0.208872
10818		4.293248	-1.311667	8.670629	-0.002863	0.004996	0.006033	0.945763	-0.128734	-0.212917	-0.208870
10819		4.314404	-1.303502	8.663522	-0.002288	0.005791	0.001281	0.945763	-0.128735	-0.212906	-0.208879
10820		4.292281	-1.312286	8.671014	-0.002090	0.004274	0.001020	0.945760	-0.128737	-0.212901	-0.208898
10821		4.282501	-1.307211	8.649266	-0.001586	0.002584	0.002264	0.945758	-0.128739	-0.212904	-0.208901
10822		4.313373	-1.304117	8.663943	-0.000395	0.003034	0.000522	0.945755	-0.128733	-0.212907	-0.208916
10823		4.306986	-1.282101	8.672088	-0.003281	0.003823	0.002762	0.945754	-0.128742	-0.212903	-0.208918
10824		4.290922	-1.313042	8.671573	0.000094	0.006691	-0.002204	0.945751	-0.128731	-0.212889	-0.208955
10825		4.302746	-1.299326	8.642574	-0.003084	0.002306	0.002501	0.945748	-0.128740	-0.212892	-0.208958
10826		4.311837	-1.305036	8.664569	-0.003479	0.005340	0.003023	0.945747	-0.128750	-0.212879	-0.208970
10827		4.289719	-1.313909	8.672037	-0.002091	0.004274	0.001020	0.945746	-0.128752	-0.212875	-0.208980
10828		4.279880	-1.308825	8.650319	-0.002091	0.004274	0.001020	0.945742	-0.128755	-0.212869	-0.209001
10829		4.304488	-1.283603	8.673106	-0.001980	0.005618	0.002786	0.945744	-0.128756	-0.212858	-0.209003
10830		4.297877	-1.319979	8.694436	-0.001783	0.004101	0.002525	0.945741	-0.128760	-0.212853	-0.209017
10831		4.300259	-1.301097	8.643545	-0.001476	0.003928	0.004030	0.945743	-0.128762	-0.212850	-0.209012
10832		4.281623	-1.292814	8.680888	0.001104	0.003312	0.000285	0.945741	-0.128748	-0.212854	-0.209025
10833		4.302845	-1.284549	8.673781	-0.004868	0.006407	0.005025	0.945744	-0.128764	-0.212834	-0.209020
10834		4.305009	-1.324020	8.636076	0.000907	0.004829	0.000546	0.945744	-0.128750	-0.212829	-0.209034
10835		4.292539	-1.279580	8.652280	-0.002200	0.002929	-0.000746	0.945739	-0.128752	-0.212832	-0.209052
10836		4.289370	-1.298972	8.703476	-0.001981	0.005618	0.002785	0.945738	-0.128755	-0.212820	-0.209065
10837		4.279391	-1.293862	8.681832	-0.000789	0.006068	0.001043	0.945740	-0.128748	-0.212809	-0.209075
10838		4.303158	-1.324625	8.636906	-0.000987	0.007585	0.001304	0.945742	-0.128741	-0.212790	-0.209090
10839		4.284221	-1.316240	8.674401	0.002515	0.006451	0.002075	0.945747	-0.128720	-0.212780	-0.209091
10840		4.305539	-1.307669	8.667304	0.000110	0.001344	0.001766	0.945743	-0.128715	-0.212790	-0.209101
10841		4.286280	-1.297392	8.623681	-0.004869	0.006407	0.005024	0.945746	-0.128732	-0.212771	-0.209096
10842		4.301265	-1.325243	8.637754	0.000907	0.004829	0.000546	0.945746	-0.128718	-0.212767	-0.209111
10843		4.282472	-1.316862	8.675170	-0.001096	0.006241	-0.000462	0.945745	-0.128711	-0.212756	-0.209128
10844		4.306995	-1.291557	8.698031	-0.002288	0.005790	0.001280	0.945744	-0.128712	-0.212743	-0.209144
10845		4.293665	-1.303354	8.646483	-0.000789	0.006068	0.001043	0.945746	-0.128706	-0.212732	-0.209153
10846		4.333743	-1.305566	8.683189	-0.000285	0.004378	0.002287	0.945745	-0.128700	-0.212727	-0.209163
10847		4.280478	-1.317496	8.676058	-0.002595	0.005963	-0.000226	0.945744	-0.128701	-0.212715	-0.209180
10848		4.298490	-1.326205	8.638988	-0.002275	0.000443	0.005249	0.945742	-0.128712	-0.212726	-0.209173
10849		4.292063	-1.304450	8.647113	-0.005483	0.006752	0.002013	0.945742	-0.128728	-0.212706	-0.209183
10850		4.307103	-1.332165	8.661178	0.002296	0.003762	-0.001456	0.945739	-0.128707	-0.212708	-0.209207
10851		4.313469	-1.298351	8.721157	-0.001171	0.003754	0.005534	0.945742	-0.128709	-0.212705	-0.209194
10852		4.272465	-1.296565	8.684840	-0.001981	0.005617	0.002785	0.945743	-0.128710	-0.212693	-0.209201
10853		4.299837	-1.310499	8.669707	-0.002200	0.002929	-0.000747	0.945738	-0.128712	-0.212696	-0.209219
10854		4.290230	-1.305360	8.647885	-0.001390	0.001066	0.002002	0.945733	-0.128715	-0.212706	-0.209230
10855		4.277648	-1.319448	8.677157	-0.002288	0.005790	0.001279	0.945734	-0.128716	-0.212694	-0.209239
10856		4.330196	-1.307932	8.684603	-0.000886	-0.000624	0.003246	0.945728	-0.128720	-0.212712	-0.209243
10857		4.277262	-1.319837	8.677288	-0.000088	0.002861	0.002027	0.945728	-0.128714	-0.212717	-0.209245
10858		4.286469	-1.325151	8.699280	0.001302	0.001794	0.000025	0.945723	-0.128702	-0.212727	-0.209263
10859		4.304656	-1.275177	8.649148	-0.000592	0.004551	0.000782	0.945723	-0.128696	-0.212723	-0.209272
10860		4.291992	-1.289208	8.678466	-0.001784	0.004100	0.002524	0.945722	-0.128697	-0.212719	-0.209279
10861		4.291681	-1.289527	8.678572	-0.003086	0.002306	0.002499	0.945719	-0.128707	-0.212722	-0.209282
10862		4.319137	-1.303647	8.663378	-0.002977	0.003650	0.004265	0.945718	-0.128719	-0.212716	-0.209287
10863		4.296977	-1.312408	8.670836	0.001016	0.006172	0.002313	0.945722	-0.128704	-0.212705	-0.209289
10864		4.299205	-1.351641	8.633135	-0.000285	0.004377	0.002288	0.945722	-0.128699	-0.212701	-0.209296
10865		4.289951	-1.290328	8.679309	-0.001095	0.006241	-0.000462	0.945722	-0.128692	-0.212690	-0.209314
10866		4.295607	-1.312697	8.671470	0.000524	0.002514	0.005037	0.945723	-0.128687	-0.212694	-0.209306
10867		4.285774	-1.307424	8.649783	0.000404	0.006518	-0.000698	0.945724	-0.128672	-0.212682	-0.209323
10868		4.322380	-1.326349	8.656696	0.002209	0.006622	0.000571	0.945726	-0.128651	-0.212671	-0.209337
10869		4.288058	-1.290346	8.680241	-0.000592	0.004551	0.000782	0.945726	-0.128644	-0.212667	-0.209346
10870		4.306024	-1.298980	8.643235	-0.003284	0.003823	0.002759	0.945724	-0.128654	-0.212663	-0.209356
10871		4.284027	-1.307918	8.650573	-0.002781	0.002133	0.004003	0.945722	-0.128664	-0.212666	-0.209351
10872		4.302521	-1.318840	8.694472	-0.000286	0.004377	0.002288	0.945722	-0.128660	-0.212662	-0.209362
10873		4.314467	-1.305092	8.665487	-0.000089	0.002860	0.002027	0.945721	-0.128654	-0.212666	-0.209365
10874		4.292420	-1.313641	8.672906	0.000907	0.004828	0.000547	0.945721	-0.128639	-0.212662	-0.209375
10875		4.285939	-1.291410	8.681130	-0.000592	0.004550	0.000782	0.945721	-0.128632	-0.212658	-0.209385
10876		4.322872	-1.252279	8.674830	-0.001785	0.004100	0.002523	0.945720	-0.128635	-0.212653	-0.209394
10877		4.281816	-1.308764	8.651540	-0.001785	0.004100	0.002523	0.945720	-0.128637	-0.212649	-0.209397
10878		4.281508	-1.309064	8.651647	-0.003392	0.002479	0.000992	0.945715	-0.128646	-0.212651	-0.209409
10879		4.321760	-1.311411	8.688279	-0.000089	0.002860	0.002027	0.945715	-0.128640	-0.212655	-0.209412
10880		4.290283	-1.314923	8.673769	-0.005286	0.005235	0.001749	0.945710	-0.128659	-0.212641	-0.209435
10881		4.311667	-1.306606	8.666653	0.001302	0.001794	0.000025	0.945707	-0.128646	-0.212652	-0.209445
10882		4.280373	-1.309934	8.652077	-0.003087	0.002306	0.002497	0.945703	-0.128656	-0.212654	-0.209454
10883		4.305097	-1.284811	8.674858	-0.001785	0.004100	0.002523	0.945703	-0.128658	-0.212651	-0.209457
10884		4.292471	-1.298939	8.704110	-0.001282	0.002410	0.003767	0.945703	-0.128659	-0.212655	-0.209452
10885		4.288876	-1.315998	8.674302	-0.000700	0.003207	-0.000984	0.945699	-0.128652	-0.212658	-0.209470
10886		4.304178	-1.285277	8.675245	-0.000591	0.004550	0.000782	0.945698	-0.128647	-0.212653	-0.209486
10887		4.272592	-1.347141	8.673778	-0.004281	0.001855	0.004238	0.945695	-0.128664	-0.212657	-0.209482
10888		4.309679	-1.308078	8.667419	0.001105	0.003311	0.000286	0.945692	-0.128653	-0.212659	-0.209502
10889		4.287659	-1.316814	8.674779	-0.005089	0.003719	0.001488	0.945688	-0.128670	-0.212654	-0.209513
10890		4.287356	-1.317076	8.674889	-0.000700	0.003207	-0.000984	0.945684	-0.128664	-0.212656	-0.209537
10891		4.281019	-1.294906	8.683036	0.000216	0.002687	0.003532	0.945684	-0.128659	-0.212661	-0.209532
10892		4.292878	-1.339601	8.667091	-0.001283	0.002409	0.003767	0.945683	-0.128662	-0.212664	-0.209532
10893		4.277237	-1.312238	8.653279	-0.001696	0.001240	0.000496	0.945678	-0.128664	-0.212675	-0.209542
10894		4.308138	-1.309182	8.668019	-0.000089	0.002860	0.002027	0.945675	-0.128660	-0.212677	-0.209555
10895		4.286085	-1.317707	8.675421	0.000603	0.005001	-0.000958	0.945674	-0.128646	-0.212674	-0.209572
10896		4.285800	-1.317732	8.675559	0.000718	0.000996	0.004777	0.945673	-0.128643	-0.212685	-0.209569
10897		4.307299	-1.309289	8.668420	-0.000699	0.003207	-0.000984	0.945669	-0.128636	-0.212688	-0.209587
10898		4.291523	-1.281826	8.654690	-0.002090	0.004273	0.001017	0.945666	-0.128638	-0.212683	-0.209603
10899		4.294333	-1.323521	8.697808	-0.001283	0.002409	0.003767	0.945666	-0.128641	-0.212687	-0.209598
10900		4.278628	-1.296190	8.684023	-0.001588	0.002583	0.002262	0.945664	-0.128642	-0.212690	-0.209603
10901		4.290696	-1.282563	8.654991	-0.001588	0.002583	0.002262	0.945663	-0.128644	-0.212693	-0.209606
10902		4.305825	-1.310379	8.668987	-0.002090	0.004273	0.001017	0.945659	-0.128647	-0.212687	-0.209625
10903		4.296134	-1.305338	8.647198	-0.003087	0.002306	0.002497	0.945657	-0.128657	-0.212691	-0.209628
10904		4.305251	-1.310864	8.669199	0.001715	0.002963	0.003297	0.945658	-0.128644	-0.212694	-0.209626
10905		4.295548	-1.305771	8.647424	-0.005089	0.003719	0.001487	0.945654	-0.128661	-0.212690	-0.209637
10906		4.304470	-1.311263	8.669526	0.001905	0.006794	-0.000931	0.945655	-0.128639	-0.212677	-0.209658
10907		4.304055	-1.311278	8.669730	-0.001588	0.002583	0.002262	0.945654	-0.128641	-0.212681	-0.209661
10908		4.272772	-1.314587	8.655128	-0.000197	0.001517	0.000261	0.945648	-0.128636	-0.212692	-0.209678
10909		4.303659	-1.311452	8.669901	-0.000394	0.003033	0.000522	0.945646	-0.128630	-0.212696	-0.209688
10910		4.293952	-1.306268	8.648141	-0.001786	0.004099	0.002522	0.945644	-0.128633	-0.212691	-0.209700
10911		4.281279	-1.320221	8.677412	0.001105	0.003310	0.000287	0.945643	-0.128620	-0.212695	-0.209709
10912		4.306089	-1.294790	8.700226	0.000108	0.001343	0.001766	0.945639	-0.128616	-0.212705	-0.209719
10913		4.277547	-1.337158	8.647690	-0.000699	0.003207	-0.000984	0.945635	-0.128609	-0.212709	-0.209737
10914		4.296101	-1.289612	8.678605	0.000126	0.005545	0.005559	0.945640	-0.128603	-0.212697	-0.209726
10915		4.301686	-1.311996	8.670797	-0.000896	0.004724	-0.000723	0.945638	-0.128597	-0.212693	-0.209744
10916		4.323015	-1.303703	8.663740	-0.003285	0.003822	0.002757	0.945637	-0.128606	-0.212688	-0.209750
10917		4.285682	-1.284850	8.657136	0.000305	-0.000174	0.001505	0.945633	-0.128601	-0.212708	-0.209753
10918		4.300991	-1.312541	8.671059	-0.002198	0.002930	-0.000749	0.945627	-0.128603	-0.212709	-0.209775
10919		4.278940	-1.321129	8.678427	0.001213	0.004653	0.002053	0.945629	-0.128589	-0.212706	-0.209777
10920		4.300369	-1.312636	8.671353	0.000108	0.001343	0.001766	0.945626	-0.128584	-0.212717	-0.209785
10921		4.269083	-1.315850	8.656756	-0.000699	0.003207	-0.000984	0.945622	-0.128578	-0.212721	-0.209802
10922		4.318245	-1.321222	8.634451	-0.001481	0.003925	0.004027	0.945623	-0.128580	-0.212716	-0.209801
10923		4.305781	-1.276838	8.650652	0.001105	0.003310	0.000287	0.945622	-0.128567	-0.212720	-0.209810
10924		4.299226	-1.313004	8.671865	-0.001893	0.002756	0.000756	0.945617	-0.128569	-0.212722	-0.209826
10925		4.277407	-1.263323	8.666147	-0.000287	0.004376	0.002288	0.945619	-0.128563	-0.212718	-0.209829
10926		4.314152	-1.282595	8.672989	-0.001786	0.004099	0.002522	0.945618	-0.128565	-0.212713	-0.209836
10927		4.298125	-1.313799	8.672290	-0.004176	0.003198	0.006001	0.945619	-0.128583	-0.212709	-0.209824
10928		4.310101	-1.300269	8.643319	-0.000895	0.004723	-0.000723	0.945616	-0.128576	-0.212704	-0.209844
10929		4.297405	-1.314242	8.672580	0.000519	0.002511	0.005038	0.945619	-0.128571	-0.212709	-0.209832
10930		4.275277	-1.322878	8.679966	-0.001092	0.006240	-0.000462	0.945617	-0.128565	-0.212696	-0.209855
10931		4.315064	-1.322769	8.635805	0.001911	0.001445	0.003037	0.945617	-0.128552	-0.212708	-0.209850
10932		4.296417	-1.314325	8.673057	0.001105	0.003310	0.000287	0.945615	-0.128540	-0.212712	-0.209867
10933		4.280505	-1.286687	8.659424	0.000515	0.007859	0.001070	0.945619	-0.128525	-0.212693	-0.209876
10934		4.292131	-1.331160	8.643628	0.001410	0.003136	0.001793	0.945618	-0.128512	-0.212697	-0.209882
10935		4.285776	-1.308867	8.651803	0.001410	0.003136	0.001793	0.945619	-0.128499	-0.212702	-0.209885
10936		4.307091	-1.300460	8.644791	-0.002287	0.005789	0.001277	0.945618	-0.128500	-0.212689	-0.209899
10937		4.288192	-1.292172	8.682135	0.000908	0.004826	0.000548	0.945619	-0.128486	-0.212685	-0.209908
10938		4.293713	-1.314533	8.674364	-0.002484	0.007306	0.001537	0.945620	-0.128487	-0.212665	-0.209922
10939		4.302619	-1.320231	8.696440	-0.002785	0.002132	0.004000	0.945619	-0.128497	-0.212669	-0.209917
10940		4.277543	-1.287619	8.660749	-0.001786	0.004099	0.002521	0.945618	-0.128499	-0.212664	-0.209924
10941		4.292565	-1.315482	8.674788	-0.001786	0.004099	0.002521	0.945618	-0.128501	-0.212660	-0.209927
10942		4.304609	-1.301799	8.645826	-0.000090	0.002859	0.002027	0.945618	-0.128494	-0.212664	-0.209929
10943		4.282605	-1.310294	8.653157	0.000802	0.003483	-0.001218	0.945615	-0.128480	-0.212668	-0.209946
10944		4.285646	-1.293577	8.683183	-0.004892	0.002203	0.001222	0.945607	-0.128499	-0.212669	-0.209968
10945		4.285461	-1.293797	8.683241	0.001910	0.001445	0.003038	0.945607	-0.128487	-0.212682	-0.209963
10946		4.275916	-1.288613	8.661405	-0.003089	0.002306	0.002494	0.945605	-0.128496	-0.212685	-0.209967
10947		4.291091	-1.316571	8.675353	-0.003393	0.002480	0.000989	0.945600	-0.128505	-0.212688	-0.209977
10948		4.272170	-1.306215	8.631593	-0.003089	0.002306	0.002494	0.945596	-0.128516	-0.212690	-0.209987
10949		4.259546	-1.320383	8.660763	-0.001590	0.002582	0.002260	0.945594	-0.128518	-0.212694	-0.209990
10950		4.306029	-1.286731	8.676413	-0.001286	0.002408	0.003766	0.945593	-0.128521	-0.212697	-0.209993
10951		4.262381	-1.303877	8.690859	-0.000501	0.001691	-0.001245	0.945587	-0.128515	-0.212708	-0.210010
10952		4.302382	-1.303986	8.646605	-0.004892	0.002203	0.001222	0.945581	-0.128532	-0.212710	-0.210025
10953		4.305312	-1.287551	8.676647	-0.003483	0.005339	0.003015	0.945582	-0.128541	-0.212698	-0.210027
10954		4.273931	-1.291036	8.662023	-0.001089	0.000892	0.003505	0.945579	-0.128544	-0.212709	-0.210027
10955		4.295122	-1.341056	8.667990	-0.000591	0.004549	0.000782	0.945579	-0.128538	-0.212705	-0.210037
10956		4.295145	-1.282910	8.655040	-0.002892	0.000789	0.002233	0.945573	-0.128549	-0.212715	-0.210045
10957		4.304369	-1.288458	8.676980	-0.000197	0.001516	0.000261	0.945569	-0.128543	-0.212726	-0.210055
10958		4.279252	-1.314107	8.654238	-0.004392	0.000513	0.002466	0.945562	-0.128562	-0.212736	-0.210067
10959		4.282512	-1.297643	8.684122	-0.002392	-0.000901	0.003478	0.945557	-0.128573	-0.212755	-0.210062
10960		4.279046	-1.314729	8.654245	-0.000894	0.004723	-0.000723	0.945555	-0.128566	-0.212749	-0.210081
10961		4.291324	-1.303318	8.706246	0.000517	0.002510	0.005038	0.945558	-0.128560	-0.212754	-0.210068
10962		4.250721	-1.301263	8.669674	-0.001696	0.001240	0.000494	0.945552	-0.128563	-0.212764	-0.210083
10963		4.281674	-1.298292	8.684439	-0.001696	0.001240	0.000494	0.945547	-0.128565	-0.212775	-0.210094
10964		4.287547	-1.320722	8.676473	-0.001893	0.002756	0.000755	0.945543	-0.128567	-0.212777	-0.210106
10965		4.299758	-1.307054	8.647446	-0.001393	0.001066	0.002000	0.945540	-0.128569	-0.212789	-0.210109
10966		4.287247	-1.321111	8.676563	-0.001696	0.001240	0.000494	0.945533	-0.128573	-0.212798	-0.210128
10967		4.318542	-1.259693	8.678283	0.000000	0.000000	0.000000	0.945533	-0.128573	-0.212798	-0.210128
10968		4.277865	-1.315899	8.654651	-0.001500	-0.000276	0.000233	0.945524	-0.128577	-0.212815	-0.210148
10969		4.287089	-1.321561	8.676572	-0.002483	0.001957	0.005505	0.945525	-0.128587	-0.212819	-0.210135
10970		4.302534	-1.291186	8.677485	-0.003696	0.002655	-0.000517	0.945518	-0.128597	-0.212820	-0.210159
10971		4.317808	-1.318970	8.691398	0.000303	-0.000174	0.001505	0.945513	-0.128592	-0.212840	-0.210162
10972		4.271293	-1.294611	8.662791	-0.001393	0.001066	0.002000	0.945508	-0.128596	-0.212850	-0.210173
10973		4.298960	-1.308562	8.647615	-0.001393	0.001066	0.002000	0.945504	-0.128598	-0.212862	-0.210176
10974		4.302104	-1.291732	8.677617	0.001303	0.001793	0.000028	0.945501	-0.128585	-0.212872	-0.210188
10975		4.280299	-1.300286	8.684818	-0.000893	-0.000625	0.003244	0.945497	-0.128588	-0.212891	-0.210184
10976		4.280311	-1.300502	8.684780	-0.000893	-0.000625	0.003244	0.945493	-0.128591	-0.212909	-0.210182
10977		4.307910	-1.314470	8.669635	-0.002090	0.004273	0.001016	0.945492	-0.128592	-0.212905	-0.210192
10978		4.286058	-1.323177	8.676835	-0.000696	-0.002142	0.002983	0.945485	-0.128597	-0.212929	-0.210196
10979		4.279968	-1.301173	8.684848	-0.003696	0.002655	-0.000517	0.945479	-0.128606	-0.212932	-0.210214
10980		4.285772	-1.323598	8.676912	-0.000393	0.003033	0.000522	0.945475	-0.128602	-0.212934	-0.210231
10981		4.276239	-1.318268	8.655094	-0.000197	0.001516	0.000261	0.945471	-0.128596	-0.212945	-0.210241
10982		4.297780	-1.309899	8.647999	-0.001590	0.002582	0.002260	0.945468	-0.128600	-0.212946	-0.210251
10983		4.278990	-1.301722	8.685248	0.000016	0.004200	0.003794	0.945471	-0.128594	-0.212943	-0.210246
10984		4.291066	-1.288029	8.656303	-0.001893	0.002756	0.000755	0.945466	-0.128598	-0.212945	-0.210263
10985		4.278207	-1.302140	8.685571	-0.002483	0.007305	0.001538	0.945468	-0.128598	-0.212926	-0.210273
10986		4.290367	-1.288464	8.656585	-0.001303	-0.001792	-0.000028	0.945459	-0.128602	-0.212950	-0.210288
10987		4.308992	-1.299527	8.700377	-0.004589	0.002029	0.002726	0.945455	-0.128619	-0.212953	-0.210291
10988		4.305491	-1.316863	8.670473	-0.002787	0.002131	0.003999	0.945454	-0.128629	-0.212956	-0.210290
10989		4.311686	-1.281122	8.649454	-0.002893	0.000789	0.002232	0.945449	-0.128639	-0.212967	-0.210293
10990		4.292811	-1.331485	8.699570	-0.002590	0.000614	0.003738	0.945446	-0.128649	-0.212977	-0.210292
10991		4.317526	-1.304030	8.641426	-0.001393	0.001065	0.001999	0.945442	-0.128652	-0.212988	-0.210295
10992		4.277279	-1.304330	8.685700	-0.001500	-0.000276	0.000233	0.945434	-0.128655	-0.213005	-0.210311
10993		4.311383	-1.282111	8.649459	-0.001696	0.001240	0.000494	0.945429	-0.128657	-0.213016	-0.210322
10994		4.286171	-1.307644	8.626748	0.000516	0.002508	0.005039	0.945432	-0.128651	-0.213021	-0.210308
10995		4.292481	-1.274216	8.686718	-0.005195	0.002379	-0.000285	0.945425	-0.128667	-0.213023	-0.210327
10996		4.285897	-1.310728	8.707807	-0.003393	0.002480	0.000988	0.945420	-0.128677	-0.213025	-0.210341
10997		4.294808	-1.314070	8.648843	-0.003090	0.002305	0.002493	0.945417	-0.128687	-0.213029	-0.210344
10998		4.303946	-1.319654	8.670816	-0.000196	0.001516	0.000261	0.945413	-0.128681	-0.213038	-0.210356
10999		4.291198	-1.333693	8.700028	-0.001983	0.005614	0.002783	0.945415	-0.128682	-0.213027	-0.210358
11000		4.297238	-1.297747	8.679130	0.000106	0.001341	0.001767	0.945411	-0.128678	-0.213038	-0.210369
11001		4.297032	-1.297828	8.679220	-0.000090	0.002858	0.002028	0.945410	-0.128673	-0.213042	-0.210371
11002		4.302749	-1.320234	8.671322	-0.002089	0.004273	0.001016	0.945408	-0.128675	-0.213037	-0.210386
11003		4.287123	-1.292749	8.657553	0.000106	0.001341	0.001767	0.945405	-0.128669	-0.213049	-0.210388
11004		4.302155	-1.320559	8.671567	-0.001983	0.005614	0.002783	0.945407	-0.128670	-0.213037	-0.210393
11005		4.301689	-1.320767	8.671767	-0.000287	0.004374	0.002289	0.945408	-0.128664	-0.213034	-0.210396
11006		4.297956	-1.337815	8.642016	-0.002286	0.005789	0.001277	0.945408	-0.128666	-0.213020	-0.210409
11007		4.288553	-1.276838	8.688274	-0.003377	0.006679	0.004782	0.945412	-0.128674	-0.213002	-0.210404
11008		4.293904	-1.299629	8.680499	-0.005678	0.008269	0.002264	0.945413	-0.128690	-0.212973	-0.210417
11009		4.277811	-1.272672	8.666884	-0.006876	0.007818	0.004002	0.945416	-0.128714	-0.212945	-0.210419
11010		4.282724	-1.354125	8.672091	-0.008875	0.009233	0.002990	0.945418	-0.128743	-0.212909	-0.210428
11011		4.282335	-1.296428	8.659372	-0.003680	0.006854	0.003276	0.945421	-0.128751	-0.212890	-0.210430
11012		4.300155	-1.305449	8.622504	-0.008678	0.007717	0.002728	0.945419	-0.128785	-0.212859	-0.210450
11013		4.299097	-1.364693	8.635692	-0.008678	0.007717	0.002728	0.945418	-0.128815	-0.212831	-0.210460
11014		4.268155	-1.254685	8.676085	-0.016677	0.008029	0.002643	0.945412	-0.128885	-0.212791	-0.210485
11015		4.307247	-1.314622	8.644950	-0.017468	0.008742	0.007653	0.945413	-0.128961	-0.212746	-0.210481
11016		4.250821	-1.289101	8.675428	-0.020468	0.008190	0.008116	0.945411	-0.129054	-0.212699	-0.210482
11017		4.283991	-1.327234	8.652197	-0.021878	0.005057	0.006318	0.945403	-0.129153	-0.212667	-0.210486
11018		4.280792	-1.290171	8.690131	-0.018485	0.002577	0.005331	0.945393	-0.129239	-0.212650	-0.210496
11019		4.280643	-1.292067	8.689923	-0.019291	-0.000908	0.006543	0.945381	-0.129333	-0.212650	-0.210494
11020		4.264893	-1.324522	8.688734	-0.015093	0.000096	0.004343	0.945370	-0.129404	-0.212649	-0.210501
11021		4.274288	-1.328683	8.629429	-0.011609	-0.005239	0.001326	0.945353	-0.129461	-0.212679	-0.210514
11022		4.265542	-1.326574	8.688102	-0.005412	-0.005651	0.000138	0.945336	-0.129488	-0.212718	-0.210530
11023		4.257043	-1.321335	8.665770	0.000069	-0.012403	-0.001868	0.945315	-0.129493	-0.212797	-0.210543
11024		4.285856	-1.334916	8.650091	0.001071	-0.010435	-0.003342	0.945295	-0.129490	-0.212867	-0.210566
11025		4.259369	-1.321046	8.664671	-0.000344	-0.018920	-0.001181	0.945267	-0.129505	-0.212976	-0.210573
11026		4.270599	-1.326403	8.685644	0.000440	-0.024984	-0.002231	0.945230	-0.129523	-0.213113	-0.210587
11027		4.232692	-1.323734	8.647806	0.002119	-0.030419	-0.006525	0.945185	-0.129532	-0.213282	-0.210610
11028		4.232532	-1.342298	8.697435	0.008903	-0.035380	-0.008504	0.945137	-0.129512	-0.213482	-0.210635
11029		4.254631	-1.349285	8.658724	0.011470	-0.045541	-0.012082	0.945076	-0.129487	-0.213735	-0.210668
11030		4.243623	-1.320012	8.643017	0.014056	-0.051508	-0.011862	0.945010	-0.129457	-0.214018	-0.210697
11031		4.211238	-1.357224	8.647127	0.019925	-0.061296	-0.014403	0.944935	-0.129406	-0.214356	-0.210723
11032		4.233339	-1.326600	8.726370	0.019684	-0.073532	-0.017780	0.944841	-0.129366	-0.214751	-0.210766
11033		4.277202	-1.340512	8.648961	0.026659	-0.085368	-0.016074	0.944741	-0.129306	-0.215211	-0.210781
11034		4.263577	-1.345418	8.652755	0.035993	-0.095148	-0.025612	0.944626	-0.129202	-0.215732	-0.210827
11035		4.297320	-1.373950	8.684735	0.044186	-0.102338	-0.021859	0.944512	-0.129070	-0.216294	-0.210843
11036		4.242056	-1.336323	8.689601	0.043850	-0.111729	-0.023208	0.944385	-0.128950	-0.216898	-0.210866
11037		4.177143	-1.407443	8.617433	0.048092	-0.123153	-0.027301	0.944244	-0.128815	-0.217566	-0.210892
11038		4.186354	-1.421033	8.663627	0.053305	-0.142171	-0.032709	0.944078	-0.128671	-0.218330	-0.210933
11039		4.172391	-1.400787	8.673517	0.061083	-0.161815	-0.041875	0.943886	-0.128499	-0.219201	-0.210994
11040		4.201193	-1.381821	8.718854	0.065172	-0.184167	-0.047582	0.943664	-0.128325	-0.220184	-0.211067
11041		4.169847	-1.368325	8.734547	0.075826	-0.209980	-0.055054	0.943411	-0.128120	-0.221305	-0.211150
11042		4.160503	-1.422877	8.806116	0.077674	-0.238996	-0.061339	0.943118	-0.127930	-0.222566	-0.211251
11043		4.162207	-1.363161	8.790953	0.083002	-0.270906	-0.076676	0.942774	-0.127730	-0.223993	-0.211397
11044		4.249349	-1.306346	8.845963	0.085028	-0.308585	-0.089068	0.942373	-0.127548	-0.225603	-0.211583
11045		4.117209	-1.310878	8.903252	0.072579	-0.350786	-0.097728	0.941904	-0.127456	-0.227407	-0.211796
11046		4.047635	-1.345382	9.008452	0.059642	-0.410901	-0.115296	0.941336	-0.127468	-0.229485	-0.212072
11047		4.051667	-1.162929	9.077269	0.039100	-0.476739	-0.135393	0.940651	-0.127623	-0.231865	-0.212431
11048		4.034412	-1.373072	9.091019	-0.000775	-0.564576	-0.158038	0.939806	-0.128033	-0.234621	-0.212897
11049		4.109935	-1.298477	9.184641	-0.017833	-0.659655	-0.183263	0.938801	-0.128592	-0.237821	-0.213444
11050		4.076188	-1.338437	9.277137	-0.041298	-0.768418	-0.210902	0.937609	-0.129339	-0.241515	-0.214083
11051		4.250192	-1.284039	9.318739	-0.070758	-0.886895	-0.235679	0.936207	-0.130319	-0.245747	-0.214808
11052		4.298781	-1.259509	9.332135	-0.096152	-1.013009	-0.261078	0.934581	-0.131519	-0.250544	-0.215611
11053		4.123524	-1.293788	9.394458	-0.138326	-1.156717	-0.287279	0.932687	-0.133031	-0.255981	-0.216499
11054		4.632870	-1.099228	9.374965	-0.174482	-1.326157	-0.311098	0.930487	-0.134854	-0.262165	-0.217433
11055		4.586289	-1.053301	9.335210	-0.217183	-1.497153	-0.327670	0.927960	-0.137031	-0.269103	-0.218395
11056		4.594030	-1.081524	9.424326	-0.238289	-1.698889	-0.327539	0.925081	-0.139512	-0.276930	-0.219250
11057		4.827560	-1.019419	9.405231	-0.243267	-1.901821	-0.332563	0.921826	-0.142213	-0.285680	-0.219999
11058		5.068481	-0.984467	9.430904	-0.216689	-2.151209	-0.319072	0.918146	-0.145057	-0.295569	-0.220466
11059		5.443620	-1.310162	9.210658	-0.126593	-2.376861	-0.299779	0.914086	-0.147739	-0.306552	-0.220559
11060		5.498937	-1.067700	9.441655	-0.066147	-2.568195	-0.288026	0.909648	-0.150334	-0.318423	-0.220336
11061		5.949725	-0.909788	9.430640	-0.076448	-2.729269	-0.290809	0.904770	-0.153124	-0.330965	-0.220017
11062		6.494009	-0.195064	9.033825	-0.143831	-2.820676	-0.272270	0.899537	-0.156311	-0.343767	-0.219601
11063		6.692228	0.165957	9.222293	-0.255835	-2.866633	-0.208725	0.894016	-0.160134	-0.356543	-0.219020
11064		7.404601	0.440854	9.410449	-0.450708	-2.789114	-0.103373	0.888421	-0.164890	-0.368608	-0.218283
11065		8.043412	0.867928	9.224022	-0.686405	-2.596815	0.024244	0.882953	-0.170707	-0.379399	-0.217508
11066		9.209309	0.932885	9.055816	-0.952303	-2.362043	0.225745	0.877785	-0.177790	-0.388641	-0.216431
11067		9.394676	1.596454	8.817759	-1.257736	-2.032716	0.449670	0.873088	-0.186291	-0.395867	-0.215180
11068		8.393008	1.442366	7.867927	-1.699147	-1.675670	0.636150	0.868778	-0.196680	-0.400833	-0.214184
11069		7.653167	1.241032	6.534026	-2.047472	-1.424860	0.747214	0.864606	-0.208540	-0.404166	-0.213582
11070		7.466745	0.575925	6.463353	-2.325746	-1.176551	0.833171	0.860605	-0.221466	-0.405970	-0.213307
11071		7.613862	-1.369039	7.019536	-2.459897	-0.808621	0.839732	0.857048	-0.234595	-0.405952	-0.213631
11072		8.008515	-3.783963	7.853510	-2.165560	-0.298344	0.755350	0.854669	-0.245698	-0.404083	-0.214218
11073		8.000815	-5.333390	8.396199	-1.471804	0.423096	0.560750	0.854302	-0.252694	-0.400040	-0.215129
11074		5.857444	-3.386114	8.578129	-0.649387	1.119641	0.205418	0.855969	-0.254693	-0.394298	-0.216744
11075		3.308589	1.065677	9.253485	-0.264740	1.724414	-0.226781	0.858799	-0.253590	-0.386842	-0.220249
11076		1.596258	3.409160	9.146777	-0.398693	2.141846	-0.675594	0.861727	-0.251721	-0.377913	-0.226373
11077		0.418299	4.402426	8.779250	-0.733853	2.458119	-1.201480	0.864101	-0.249984	-0.367756	-0.235780
11078		0.054267	3.549614	8.155844	-1.038966	2.682536	-1.728525	0.865724	-0.248282	-0.356767	-0.248186
11079		0.320087	1.915271	7.697807	-1.201124	2.838311	-2.206408	0.866549	-0.246223	-0.345311	-0.263111
11080		1.021748	0.273635	7.656112	-1.191787	2.986526	-2.604662	0.866814	-0.243133	-0.333527	-0.279785
11081		1.512475	-0.631465	7.817445	-1.088448	3.119001	-2.886705	0.866620	-0.238878	-0.321466	-0.297600
11082		1.683431	-1.185029	7.759265	-1.007919	3.236200	-3.059370	0.866056	-0.233675	-0.309039	-0.315972
11083		1.443185	-1.660688	7.473660	-0.961597	3.279381	-3.159399	0.864967	-0.227966	-0.296438	-0.334647
11084		0.786631	-2.226113	6.896749	-0.912058	3.202904	-3.219988	0.863285	-0.221920	-0.284151	-0.353199
11085		0.291409	-2.765862	6.617690	-0.829794	2.955980	-3.258422	0.860782	-0.215814	-0.272975	-0.371435
11086		0.713917	-2.794141	6.914731	-0.739794	2.595001	-3.260348	0.857492	-0.209838	-0.263396	-0.388971
11087		1.711108	-2.365140	7.574072	-0.735662	2.233731	-3.187399	0.853456	-0.204578	-0.255210	-0.405743
11088		2.924386	-1.918708	8.246436	-0.845347	1.911197	-3.031670	0.848925	-0.200522	-0.247941	-0.421476
11089		3.908145	-1.479987	8.780688	-1.030754	1.620294	-2.821897	0.843975	-0.198086	-0.241269	-0.436185
11090		5.335894	-1.089372	9.283709	-1.294389	1.370944	-2.550829	0.838857	-0.197542	-0.234764	-0.449646
11091		7.025702	-0.630267	9.860011	-1.572195	1.228732	-2.263320	0.833705	-0.198800	-0.227943	-0.462014
11092		8.699272	-0.303602	10.292442	-1.892075	1.219139	-1.945732	0.828777	-0.201725	-0.220064	-0.473294
11093		9.768601	-0.187651	10.413981	-2.133623	1.320450	-1.674196	0.824188	-0.205674	-0.210932	-0.483652
11094		10.337255	0.751975	10.260265	-2.327428	1.490450	-1.470532	0.819891	-0.210174	-0.200364	-0.493417
11095		10.344170	1.351046	9.645759	-2.499751	1.690785	-1.386941	0.815627	-0.214928	-0.188441	-0.503040
11096		9.924892	2.385499	8.847183	-2.635709	1.872751	-1.432978	0.811046	-0.219673	-0.175390	-0.513017
11097		9.214338	2.871751	7.789289	-2.737115	1.991084	-1.579207	0.805829	-0.224336	-0.161703	-0.523607
11098		8.651908	3.139402	6.812440	-2.804325	2.012578	-1.807416	0.799665	-0.228942	-0.147893	-0.535022
11099		8.428987	2.327996	5.684706	-2.713436	1.967653	-2.103026	0.792469	-0.233006	-0.134772	-0.547300
11100		8.648606	1.754373	4.824157	-2.509323	1.867016	-2.388206	0.784334	-0.236243	-0.122834	-0.560287
11101		9.294924	1.171273	4.017129	-2.236626	1.694469	-2.616548	0.775457	-0.238669	-0.112558	-0.573615
11102		10.120214	1.040446	3.438038	-1.968237	1.491290	-2.740639	0.766124	-0.240469	-0.103924	-0.586880
11103		10.908034	0.883996	2.613205	-1.680979	1.277291	-2.755256	0.756711	-0.241715	-0.096962	-0.599634
11104		11.712684	1.023753	2.106468	-1.370268	1.038542	-2.685114	0.747557	-0.242451	-0.091745	-0.611522
11105		12.194206	0.916659	1.064305	-1.090484	0.804185	-2.530921	0.738873	-0.242882	-0.088086	-0.622347
11106		12.330801	-0.713084	0.234349	-0.550787	0.539295	-2.284240	0.731317	-0.242202	-0.086815	-0.631646
11107		12.971799	-2.269252	0.542060	0.185351	0.247605	-1.957242	0.725413	-0.239864	-0.088604	-0.639054
11108		13.169337	-1.479544	2.928056	0.725202	0.022607	-1.555508	0.721267	-0.236437	-0.092525	-0.644445
11109		12.764909	-1.461824	7.127477	0.034111	0.103845	-0.865933	0.718548	-0.235570	-0.093180	-0.647698
11110		10.624184	-8.778529	9.480635	-0.113830	0.389315	-0.275937	0.717725	-0.234597	-0.091709	-0.649172
11111		5.703748	-12.454667	10.363106	0.477778	0.618566	-0.044366	0.718430	-0.230860	-0.091098	-0.649817
11112		-0.103307	-9.552415	10.325350	1.214712	0.598196	-0.117937	0.719674	-0.224501	-0.093043	-0.650393
11113		-4.075494	-8.382392	8.178652	1.742394	0.221551	-0.277278	0.720711	-0.217363	-0.098227	-0.650907
11114		-2.511843	-4.392844	7.685619	2.196344	-0.375139	-0.490686	0.721143	-0.210390	-0.107257	-0.651295
11115		3.305212	1.142215	10.016693	2.176797	-0.793242	-0.464078	0.721252	-0.204831	-0.117696	-0.651143
11116		9.043503	5.488603	12.780323	1.748102	-0.640411	-0.315562	0.721449	-0.200398	-0.126028	-0.650745
11117		8.859374	7.584836	13.043206	1.149006	-0.157095	-0.241011	0.721617	-0.196596	-0.130580	-0.650820
11118		5.749724	4.866306	12.143901	0.594724	0.150709	-0.240128	0.721484	-0.193803	-0.132197	-0.651480
11119		3.520908	-0.416943	9.011543	0.421076	0.113360	-0.182996	0.721343	-0.191792	-0.133334	-0.651998
11120		2.989070	-1.676631	7.986358	0.429106	-0.051271	-0.077927	0.721427	-0.190360	-0.135008	-0.651981
11121		3.530163	-0.731561	8.311672	0.504065	-0.108395	-0.072011	0.721549	-0.188842	-0.137129	-0.651845
11122		3.426539	-0.121127	8.511348	0.485409	-0.139414	-0.052563	0.721690	-0.187507	-0.139284	-0.651617
11123		4.210994	0.046642	8.763508	0.450551	-0.132363	-0.055463	0.721792	-0.186270	-0.141302	-0.651425
11124		4.493699	0.064052	8.888816	0.405431	-0.133206	-0.038340	0.721905	-0.185213	-0.143160	-0.651194
11125		5.189454	1.124870	9.656913	0.345250	-0.097840	-0.034132	0.722005	-0.184259	-0.144690	-0.651016
11126		5.462016	0.887655	9.711172	0.249848	-0.044333	-0.022055	0.722103	-0.183487	-0.145704	-0.650899
11127		5.124703	0.494353	9.564666	0.170704	-0.025285	-0.006313	0.722198	-0.182950	-0.146377	-0.650794
11128		4.757908	0.420535	9.549787	0.117060	-0.028052	0.008799	0.722294	-0.182629	-0.146874	-0.650666
11129		4.719227	0.214752	9.504784	0.074260	-0.027337	0.020939	0.722393	-0.182469	-0.147218	-0.650523
11130		4.318443	0.346483	9.350645	0.020088	-0.048696	0.029002	0.722454	-0.182581	-0.147458	-0.650370
11131		4.168413	0.064686	9.130613	-0.035269	-0.075205	0.052004	0.722520	-0.182995	-0.147595	-0.650148
11132		4.080696	-0.111363	8.924355	-0.072356	-0.098803	0.066326	0.722583	-0.183632	-0.147686	-0.649879
11133		4.350796	-0.190425	9.047408	-0.101795	-0.119321	0.069939	0.722613	-0.184444	-0.147751	-0.649600
11134		4.600239	-0.337095	9.056897	-0.117341	-0.119008	0.074821	0.722646	-0.185315	-0.147762	-0.649313
11135		4.558731	-0.461844	9.003022	-0.115550	-0.112256	0.070227	0.722671	-0.186154	-0.147756	-0.649047
11136		4.484875	-0.629367	8.958685	-0.120986	-0.121589	0.066415	0.722670	-0.187040	-0.147771	-0.648789
11137		4.357559	-0.608999	8.949734	-0.113325	-0.132354	0.061752	0.722652	-0.187929	-0.147852	-0.648535
11138		4.437132	-0.560335	8.889001	-0.118197	-0.140978	0.064066	0.722629	-0.188865	-0.147948	-0.648266
11139		4.408360	-0.534345	8.799019	-0.122549	-0.138252	0.063498	0.722602	-0.189807	-0.148019	-0.648005
11140		4.379017	-0.437083	8.779594	-0.135458	-0.143861	0.068153	0.722573	-0.190818	-0.148065	-0.647730
11141		4.312427	-0.458662	8.787044	-0.140755	-0.154672	0.069836	0.722535	-0.191884	-0.148131	-0.647442
11142		4.308281	-0.216422	8.754265	-0.137325	-0.166967	0.079520	0.722520	-0.192984	-0.148246	-0.647105
11143		4.355069	-0.292755	8.773640	-0.153553	-0.166970	0.090417	0.722525	-0.194150	-0.148297	-0.646739
11144		4.407321	-0.366345	8.704976	-0.147649	-0.163450	0.094166	0.722550	-0.195287	-0.148353	-0.646356
11145		4.409031	-0.553505	8.641540	-0.144929	-0.165388	0.100931	0.722595	-0.196424	-0.148418	-0.645945
11146		4.354741	-0.652228	8.598446	-0.147612	-0.165055	0.099281	0.722633	-0.197569	-0.148475	-0.645541
11147		4.401280	-0.555536	8.651873	-0.151366	-0.161670	0.104812	0.722686	-0.198721	-0.148501	-0.645122
11148		4.588704	-0.890436	8.564445	-0.159192	-0.157362	0.103307	0.722730	-0.199885	-0.148490	-0.644716
11149		4.444377	-0.746134	8.622585	-0.147482	-0.163051	0.099140	0.722765	-0.201022	-0.148538	-0.644311
11150		4.511421	-0.871113	8.503156	-0.153616	-0.161118	0.096611	0.722788	-0.202173	-0.148563	-0.643920
11151		4.378166	-0.853661	8.529119	-0.165069	-0.164433	0.097501	0.722798	-0.203376	-0.148560	-0.643531
11152		4.378468	-0.792738	8.516561	-0.175956	-0.192419	0.094657	0.722764	-0.204706	-0.148628	-0.643131
11153		4.366442	-0.756729	8.535090	-0.194463	-0.209682	0.096480	0.722703	-0.206158	-0.148695	-0.642720
11154		4.411560	-1.134787	8.457423	-0.213323	-0.223055	0.091419	0.722594	-0.207718	-0.148756	-0.642326
11155		4.402272	-1.101462	8.473701	-0.227882	-0.247118	0.086141	0.722432	-0.209403	-0.148860	-0.641937
11156		4.265437	-1.136886	8.492702	-0.252217	-0.276833	0.080778	0.722202	-0.211266	-0.148999	-0.641552
11157		4.246477	-1.608603	8.514815	-0.253035	-0.303847	0.061578	0.721885	-0.213203	-0.149249	-0.641211
11158		4.092246	-1.435015	8.564931	-0.197904	-0.335496	0.030200	0.721494	-0.215017	-0.149822	-0.640911
11159		4.324038	-1.569989	8.397124	-0.184045	-0.363409	-0.000355	0.720994	-0.216845	-0.150567	-0.640684
11160		4.407915	-1.458435	8.551616	-0.141262	-0.383664	-0.027996	0.720429	-0.218561	-0.151550	-0.640504
11161		4.558207	-1.268314	8.508886	-0.109658	-0.400253	-0.056466	0.719788	-0.220193	-0.152721	-0.640388
11162		4.518644	-1.159259	8.563687	-0.105496	-0.406761	-0.070287	0.719142	-0.221806	-0.153951	-0.640263
11163		4.801045	-1.135908	8.631570	-0.119703	-0.420632	-0.093190	0.718349	-0.223508	-0.155197	-0.640260
11164		4.665174	-0.931802	8.771988	-0.138967	-0.449968	-0.100099	0.717485	-0.225366	-0.156493	-0.640261
11165		4.706606	-0.969851	8.800927	-0.181369	-0.473806	-0.129168	0.716458	-0.227428	-0.157767	-0.640370
11166		4.701064	-1.160882	8.971756	-0.246614	-0.513748	-0.181805	0.715151	-0.229808	-0.159026	-0.640670
11167		4.754960	-1.406877	8.673218	-0.283430	-0.552344	-0.238190	0.713583	-0.232395	-0.160360	-0.641153
11168		4.807089	-1.368249	8.625622	-0.325905	-0.590227	-0.297776	0.711734	-0.235203	-0.161752	-0.641834
11169		5.074175	-1.311102	8.316060	-0.348776	-0.624579	-0.346452	0.709662	-0.238159	-0.163242	-0.642660
11170		5.101046	-1.074916	8.424964	-0.359775	-0.632757	-0.355790	0.707580	-0.241152	-0.164745	-0.643456
11171		5.159750	-1.065433	8.423780	-0.377876	-0.665465	-0.364508	0.705357	-0.244319	-0.166300	-0.644302
11172		5.135340	-1.165855	8.453123	-0.420270	-0.714177	-0.372213	0.703001	-0.247781	-0.167896	-0.645140
11173		5.022815	-0.835408	8.664393	-0.441342	-0.773988	-0.360365	0.700589	-0.251513	-0.169618	-0.645868
11174		4.999901	-0.778572	8.836641	-0.470266	-0.883748	-0.349992	0.698105	-0.255686	-0.171631	-0.646388
11175		5.012023	-0.804672	8.966694	-0.515611	-1.025704	-0.341541	0.695388	-0.260489	-0.173968	-0.646773
11176		5.009298	-0.805304	9.122377	-0.509692	-1.193187	-0.334285	0.692516	-0.265805	-0.176896	-0.646898
11177		4.875558	-0.904895	9.332417	-0.514525	-1.428146	-0.336067	0.689370	-0.271878	-0.180621	-0.646705
11178		4.762443	-0.978967	9.552177	-0.453772	-1.745658	-0.349076	0.685956	-0.278708	-0.185666	-0.645999
11179		4.531348	-1.650692	9.819455	-0.448214	-2.119887	-0.393280	0.681904	-0.286669	-0.192046	-0.644939
11180		4.216862	-1.992010	10.410948	-0.308760	-2.631220	-0.445260	0.677305	-0.295672	-0.200695	-0.643085
11181		3.697615	-2.586946	11.039106	-0.206967	-3.312411	-0.559494	0.671529	-0.306341	-0.212091	-0.640485
11182		3.631408	-3.186436	11.347749	-0.028161	-4.037565	-0.708435	0.664545	-0.318413	-0.226676	-0.636876
11183		3.981859	-4.220122	11.367880	0.290162	-4.848448	-0.885939	0.656099	-0.331641	-0.245130	-0.632028
11184		4.109312	-4.109740	12.569838	0.632230	-5.503114	-1.111315	0.646250	-0.345238	-0.267038	-0.625989
11185		3.313728	-4.585527	12.917618	0.574841	-6.214171	-1.434522	0.633630	-0.360508	-0.291340	-0.619409
11186		4.714181	-3.575270	13.923717	0.642382	-7.034269	-1.743536	0.618175	-0.377192	-0.318645	-0.611597
11187		6.980120	-3.213804	14.849593	0.438437	-7.839766	-2.001287	0.599302	-0.395970	-0.347835	-0.602540
11188		10.120563	-3.281584	14.980456	0.184187	-8.379339	-2.155701	0.577448	-0.416151	-0.377548	-0.592309
11189		13.625967	-2.369599	15.669141	-0.113573	-8.487823	-2.223306	0.553480	-0.436600	-0.406119	-0.581471
11190		16.366507	-1.059051	15.844108	-0.608849	-8.251038	-2.205555	0.527966	-0.456973	-0.431743	-0.570987
11191		18.187713	-0.468809	16.652790	-1.350291	-7.567254	-2.108818	0.501683	-0.476844	-0.452457	-0.562331
11192		16.211963	-2.567579	16.170185	-2.055676	-6.481433	-2.123334	0.475528	-0.494802	-0.467736	-0.557016
11193		12.733317	-2.383906	13.651005	-2.267746	-5.386959	-2.356506	0.450299	-0.509176	-0.479805	-0.554759
11194		5.295590	-6.772748	9.550649	-2.123377	-4.112812	-2.407699	0.428059	-0.519208	-0.489026	-0.555016
11195		-0.506605	-5.855649	10.232573	-0.505534	-5.039186	-2.524113	0.406969	-0.527555	-0.504809	-0.548844
11196		29.172609	-8.757278	21.588043	-0.581124	-3.183812	-2.216255	0.391095	-0.531555	-0.515370	-0.546706
11197		21.237139	-11.735680	18.479397	-0.321567	0.022962	-1.545573	0.386091	-0.528091	-0.518395	-0.550746
11198		12.402422	-5.260336	20.473608	0.056831	2.529100	-0.951937	0.390320	-0.518630	-0.515856	-0.559076
11199		-0.733503	0.749444	14.547294	-0.524633	3.834752	-0.249060	0.398349	-0.508441	-0.507200	-0.570574
11200		-8.021732	2.191790	9.751573	-1.473867	3.950417	0.400359	0.406005	-0.501324	-0.493693	-0.583182
11201		-9.144202	2.180509	6.286162	-2.323991	3.503507	0.823187	0.411465	-0.498070	-0.477429	-0.595554
11202		-8.193700	1.127476	4.663007	-2.805709	3.057971	1.165989	0.415494	-0.497729	-0.459542	-0.607003
11203		-5.957082	-0.181821	4.780656	-2.931465	2.811085	1.394956	0.419118	-0.498693	-0.441106	-0.617310
11204		-3.378267	-1.509351	5.738048	-2.711737	2.776816	1.493623	0.423329	-0.499287	-0.422924	-0.626610
11205		-0.963381	-2.241967	6.975536	-2.235948	2.965391	1.513301	0.428986	-0.498113	-0.405694	-0.635033
11206		1.141187	-2.013969	8.254097	-1.664984	3.317049	1.490211	0.436542	-0.494341	-0.389339	-0.643019
11207		2.832094	-0.802476	9.198352	-1.172107	3.778949	1.454020	0.445909	-0.487739	-0.373557	-0.650946
11208		3.785955	1.109389	9.870123	-0.901400	4.264202	1.437327	0.456605	-0.478688	-0.357331	-0.659306
11209		4.435911	2.895175	10.109418	-0.915013	4.706377	1.449297	0.467858	-0.467985	-0.339878	-0.668267
11210		4.758005	3.832237	9.867767	-1.129680	5.095000	1.474914	0.479086	-0.456216	-0.320394	-0.678005
11211		4.770465	3.763213	9.292473	-1.368416	5.377247	1.464490	0.489842	-0.443724	-0.299262	-0.688191
11212		4.847059	3.032624	8.948225	-1.523167	5.540857	1.387579	0.499844	-0.430537	-0.277002	-0.698615
11213		5.292917	2.120420	8.931416	-1.553762	5.626106	1.245794	0.508967	-0.416576	-0.254551	-0.708958
11214		6.083821	1.498356	9.368960	-1.491412	5.675372	1.088344	0.517270	-0.401671	-0.232187	-0.719153
11215		7.027845	1.340048	10.181708	-1.437369	5.700073	0.973251	0.524835	-0.386074	-0.210055	-0.728953
11216		7.946518	1.516152	10.948217	-1.453539	5.709121	0.940785	0.531790	-0.370070	-0.187621	-0.738272
11217		8.355310	1.549429	11.554886	-1.568072	5.687056	0.985756	0.538214	-0.354204	-0.164667	-0.746827
11218		9.111565	1.529453	12.158112	-1.768484	5.557085	1.093659	0.544096	-0.339098	-0.140899	-0.754401
11219		11.234172	1.372173	12.964694	-2.016541	5.306532	1.305200	0.549711	-0.325518	-0.116518	-0.760447
11220		13.843361	0.654520	13.162162	-2.125115	4.975502	1.572487	0.555493	-0.313341	-0.092057	-0.764703
11221		16.411062	-0.511491	12.379202	-1.985316	4.514123	1.800652	0.561705	-0.302465	-0.069125	-0.766958
11222		19.594462	-1.715396	10.934491	-1.523069	3.922782	1.879126	0.568275	-0.292344	-0.049422	-0.767565
11223		24.301410	-3.065047	9.180488	-0.854058	3.345075	1.768019	0.574911	-0.282420	-0.034173	-0.767169
11224		29.659552	-2.596845	7.748180	-0.071879	2.925852	1.473251	0.581984	-0.271539	-0.023549	-0.766163
11225		32.503959	2.382566	6.309549	0.315545	2.748376	1.136998	0.587266	-0.260258	-0.015311	-0.766257
11226		34.291432	11.099559	4.323616	-0.238279	2.712032	0.896983	0.590795	-0.250618	-0.005262	-0.766893
11227		35.281961	17.200302	0.265503	-1.722273	3.049981	0.731006	0.591818	-0.244030	0.011269	-0.768163
11228		34.452671	14.203582	-5.565511	-2.830145	3.420565	0.494494	0.590412	-0.239167	0.032961	-0.770147
11229		33.281984	8.542254	-11.211954	-2.637727	3.608491	-0.151630	0.586420	-0.233005	0.053727	-0.773908
11230		28.958550	4.044323	-15.500476	-1.463870	3.478763	-1.035988	0.580036	-0.223990	0.068628	-0.780178
11231		24.386845	3.302709	-16.801350	0.091184	2.819331	-1.940757	0.571710	-0.213268	0.074575	-0.788735
11232		19.801652	4.072682	-14.515086	1.188046	1.783010	-2.562741	0.562137	-0.203654	0.072596	-0.798284
11233		9.434813	-3.092086	-10.236898	2.434605	0.663376	-2.378714	0.554626	-0.194909	0.062586	-0.806525
11234		-23.115473	0.490126	18.545947	1.788194	-1.374119	-2.660165	0.545665	-0.196207	0.049245	-0.813220
11235		-7.413679	-3.892171	19.799659	0.596507	-2.468053	-1.205734	0.541589	-0.204861	0.038982	-0.814367
11236		-0.580104	-15.173242	-6.792201	1.283382	-3.837351	-0.584745	0.540676	-0.217081	0.022721	-0.812422
11237		12.159846	-1.793628	8.010723	2.213343	-5.171005	-0.876540	0.539211	-0.232099	-0.001266	-0.809556
11238		21.595399	-0.847811	22.321572	1.770723	-4.293448	-0.735462	0.537555	-0.244609	-0.020912	-0.806699
11239		33.029380	19.662719	25.746261	3.476933	-2.429765	-2.006778	0.532797	-0.244688	-0.043800	-0.808911
11240		11.001545	4.019523	15.612835	-0.491167	-0.188814	-0.611363	0.529795	-0.246592	-0.043010	-0.810345
11241		4.181054	-6.912702	7.979179	0.191374	-0.676643	-0.493883	0.527783	-0.248699	-0.046161	-0.810841
11242		9.567945	-5.678513	10.474348	0.743062	-0.520114	-0.488349	0.526610	-0.248696	-0.051152	-0.811305
11243		7.200139	2.167528	11.299844	0.521544	-0.014577	-0.372560	0.525687	-0.247274	-0.053748	-0.812170
11244		5.780445	0.551179	10.030521	0.165012	0.109730	-0.221594	0.525141	-0.246319	-0.054411	-0.812769
11245		5.247072	-1.311545	8.994071	0.100867	0.089808	-0.121404	0.524785	-0.245660	-0.054735	-0.813177
11246		4.537588	-0.743775	9.078260	0.061227	0.035045	-0.084374	0.524651	-0.245324	-0.055022	-0.813345
11247		4.545313	-0.720202	9.107763	0.017646	-0.032681	-0.048766	0.524449	-0.245404	-0.055251	-0.813436
11248		4.235253	-0.150547	8.975650	-0.032407	-0.129064	-0.012182	0.524443	-0.246003	-0.055511	-0.813241
11249		4.641242	-0.286648	8.985443	-0.093640	-0.210280	0.039112	0.524403	-0.247125	-0.055660	-0.812916
11250		4.478564	-0.942271	8.924318	-0.132525	-0.246672	0.068654	0.524497	-0.248506	-0.055747	-0.812428
11251		4.525388	-1.298944	8.836983	-0.133416	-0.266923	0.078965	0.524550	-0.249975	-0.055839	-0.811937
11252		4.499296	-1.259229	8.661097	-0.121615	-0.282667	0.088146	0.524650	-0.251483	-0.056023	-0.811394
11253		4.497244	-1.459870	8.495156	-0.111818	-0.291764	0.089612	0.524760	-0.252998	-0.056257	-0.810836
11254		4.571136	-1.691165	8.449322	-0.097564	-0.278424	0.091312	0.525041	-0.254403	-0.056534	-0.810194
11255		4.740203	-2.106832	8.320737	-0.072494	-0.236321	0.082297	0.525187	-0.255587	-0.056789	-0.809709
11256		4.794585	-2.228093	8.343633	-0.029740	-0.179485	0.071003	0.525432	-0.256424	-0.057115	-0.809262
11257		4.732721	-1.964030	8.366570	0.008468	-0.125769	0.053659	0.525601	-0.256937	-0.057439	-0.808967
11258		4.646388	-1.645543	8.450188	0.018826	-0.101508	0.055461	0.525938	-0.257310	-0.057761	-0.808607
11259		4.564119	-1.348685	8.525522	0.015463	-0.093469	0.052102	0.526121	-0.257673	-0.058029	-0.808353
11260		4.433410	-1.376528	8.574940	-0.000560	-0.100485	0.064864	0.526473	-0.258095	-0.058259	-0.807972
11261		4.424815	-1.254744	8.585303	0.000533	-0.122744	0.068536	0.526693	-0.258622	-0.058526	-0.807641
11262		4.501161	-1.315047	8.490453	-0.020444	-0.133178	0.069722	0.527023	-0.259230	-0.058756	-0.807214
11263		4.457879	-1.621932	8.467129	-0.030061	-0.149881	0.071109	0.527204	-0.259947	-0.058967	-0.806850
11264		4.703214	-1.533908	8.420728	-0.038672	-0.125897	0.070314	0.527382	-0.260595	-0.059094	-0.806515
11265		4.468931	-1.652397	8.364972	-0.020108	-0.150202	0.061511	0.527536	-0.261284	-0.059358	-0.806172
11266		4.768263	-1.552116	8.315491	-0.046607	-0.146247	0.067567	0.527815	-0.262012	-0.059519	-0.805741
11267		4.467514	-1.553624	8.397242	-0.031190	-0.132779	0.056417	0.527941	-0.262658	-0.059698	-0.805435
11268		4.625943	-1.707462	8.431149	-0.041107	-0.154444	0.066396	0.528223	-0.263403	-0.059906	-0.804991
11269		4.524699	-1.812613	8.411235	-0.032424	-0.137828	0.057549	0.528349	-0.264072	-0.060092	-0.804675
11270		4.541390	-1.898724	8.407654	-0.041174	-0.112427	0.048714	0.528570	-0.264643	-0.060208	-0.804334
11271		4.463457	-1.831745	8.571612	-0.037927	-0.125055	0.024830	0.528562	-0.265264	-0.060376	-0.804122
11272		3.843940	-1.982904	8.981840	-0.097056	-0.158881	-0.032084	0.528370	-0.266140	-0.060487	-0.803950
11273		3.681967	-2.767672	8.996013	-0.158367	-0.227858	-0.160179	0.527422	-0.267427	-0.060665	-0.804132
11274		4.465239	-1.626461	8.882558	-0.103500	-0.317822	-0.242513	0.526302	-0.268883	-0.061426	-0.804322
11275		4.958338	-1.352509	8.504169	-0.206792	-0.437978	-0.242530	0.524871	-0.271108	-0.062066	-0.804462
11276		4.345214	-0.612526	8.998957	-0.240927	-0.403490	-0.137752	0.523899	-0.273321	-0.062384	-0.804322
11277		4.438550	-1.219665	9.169860	-0.254432	-0.555732	-0.100287	0.522925	-0.276191	-0.062969	-0.803930
11278		4.275076	-1.248432	9.172167	-0.330141	-0.678324	-0.093253	0.521945	-0.279735	-0.063585	-0.803292
11279		4.556370	-1.333265	8.932660	-0.388685	-0.804189	-0.087774	0.520726	-0.283950	-0.064266	-0.802550
11280		4.546942	-1.383838	8.884580	-0.467977	-0.900924	-0.073271	0.519477	-0.288756	-0.064899	-0.801593
11281		4.460877	-1.716525	9.031814	-0.563048	-1.009009	-0.077266	0.517949	-0.294233	-0.065400	-0.800549
11282		4.386469	-1.924255	9.120966	-0.611368	-1.141349	-0.095096	0.516276	-0.300344	-0.066112	-0.799300
11283		4.338508	-1.780641	9.151774	-0.668194	-1.316498	-0.126665	0.514226	-0.307277	-0.067057	-0.797907
11284		4.506307	-1.043596	9.318340	-0.808117	-1.523211	-0.146325	0.511839	-0.315362	-0.068040	-0.796203
11285		4.725826	-1.042104	9.104599	-0.980533	-1.767518	-0.157742	0.508924	-0.324830	-0.068938	-0.794185
11286		4.367271	-1.678206	9.446123	-1.119686	-2.022226	-0.225625	0.505419	-0.335592	-0.070071	-0.791846
11287		4.669369	-2.590165	9.412924	-1.146480	-2.378157	-0.340096	0.501109	-0.347735	-0.072137	-0.789155
11288		3.781529	-3.895268	10.551090	-1.083657	-2.852022	-0.520732	0.495937	-0.361432	-0.075976	-0.785902
11289		2.618323	-5.125838	11.990481	-0.755702	-3.776846	-0.795298	0.489589	-0.377714	-0.083841	-0.781412
11290		1.924489	-6.051662	12.460750	-0.089073	-4.892056	-1.120956	0.482358	-0.396357	-0.097645	-0.775047
11291		2.009883	-7.392451	11.644079	0.160166	-6.137496	-1.550261	0.472816	-0.418655	-0.116193	-0.766598
11292		2.165547	-11.412205	11.788318	1.057615	-6.814524	-2.160877	0.461740	-0.440534	-0.140911	-0.756882
11293		-0.246023	-5.413894	12.520495	1.361152	-7.926370	-2.707910	0.447634	-0.464803	-0.170329	-0.744695
11294		2.346659	-6.333352	14.192964	1.741470	-9.300623	-3.097070	0.430685	-0.491947	-0.204805	-0.728391
11295		7.248212	-3.352573	15.116564	1.904379	-10.086324	-3.381232	0.411053	-0.519952	-0.241735	-0.708696
11296		20.064928	0.073918	18.545886	0.771731	-10.721629	-3.147918	0.387316	-0.551245	-0.274616	-0.686077
11297		20.048319	-8.276186	16.116201	0.361586	-10.738341	-3.061237	0.361530	-0.581807	-0.305032	-0.661628
11298		29.162081	-0.126191	21.062850	0.631246	-9.488912	-3.000120	0.337710	-0.606243	-0.332966	-0.638401
11299		25.342753	-3.204545	24.570757	-0.731939	-7.478224	-2.757122	0.313409	-0.625873	-0.351580	-0.621650
11300		15.738166	-5.912296	24.532146	-1.728911	-5.289144	-2.727803	0.289751	-0.639618	-0.362883	-0.612576
11301		-2.433563	-17.643241	8.159428	-0.532673	-3.584584	-3.231823	0.271283	-0.645032	-0.376642	-0.607026
11302		13.500898	-6.749441	19.835260	1.153964	-6.530482	-3.047422	0.252731	-0.656632	-0.398832	-0.588128
11303		24.547368	-10.425842	29.054614	2.088776	-2.576935	-2.758365	0.245962	-0.655598	-0.417296	-0.579273
11304		17.532563	-3.182961	21.036676	1.213110	0.374257	-1.878503	0.245235	-0.648932	-0.426321	-0.580515
11305		8.402766	-2.676086	20.930053	0.495530	2.530581	-1.198584	0.248865	-0.638415	-0.428262	-0.589138
11306		-0.531100	1.034174	15.247423	-0.579771	3.876476	-0.481544	0.254166	-0.626732	-0.422766	-0.603220
11307		-6.721643	0.568534	10.442788	-1.674817	4.316198	0.139591	0.258777	-0.616255	-0.411310	-0.619749
11308		-8.174712	-0.648946	6.116599	-2.494115	4.122705	0.624014	0.261882	-0.608095	-0.395764	-0.636403
11309		-7.263443	-2.678893	3.795852	-2.664586	3.804749	1.022802	0.264913	-0.601653	-0.378787	-0.651425
11310		-5.397770	-3.933221	3.280328	-2.448707	3.619394	1.284378	0.268956	-0.595657	-0.361719	-0.664842
11311		-3.263250	-4.889174	3.390369	-1.971569	3.598888	1.494851	0.274891	-0.589207	-0.345595	-0.676634
11312		-1.275935	-5.187680	3.887370	-1.311229	3.737640	1.621400	0.283315	-0.581272	-0.330916	-0.687277
11313		0.501356	-3.818037	4.923252	-0.724524	3.988399	1.709835	0.293986	-0.571559	-0.317604	-0.697152
11314		2.094472	-1.533017	6.097630	-0.408170	4.294006	1.811051	0.306283	-0.560140	-0.304393	-0.706950
11315		3.463152	0.449055	7.194188	-0.416860	4.625167	1.931201	0.319303	-0.547485	-0.290223	-0.716991
11316		4.813776	1.648413	7.922171	-0.650425	4.957237	2.042485	0.332419	-0.533766	-0.274055	-0.727657
11317		5.856347	2.023276	8.321888	-0.966538	5.293801	2.093473	0.345098	-0.519079	-0.255908	-0.738901
11318		6.534222	1.710294	8.613503	-1.232284	5.592938	2.059147	0.357107	-0.503189	-0.235983	-0.750724
11319		7.265449	1.190884	8.918604	-1.404188	5.820113	1.943028	0.368177	-0.486205	-0.215153	-0.762732
11320		8.084534	0.705419	9.399076	-1.496400	6.013784	1.785214	0.378298	-0.467907	-0.193634	-0.774893
11321		8.903672	0.269565	10.119387	-1.563481	6.157904	1.616465	0.387341	-0.448593	-0.171859	-0.786890
11322		10.041701	-0.127678	11.177534	-1.601200	6.278019	1.504699	0.395569	-0.428201	-0.149630	-0.798611
11323		11.588368	-0.468286	12.309098	-1.658240	6.367647	1.486748	0.403221	-0.407159	-0.126974	-0.809637
11324		13.069893	-0.534864	13.202486	-1.742232	6.448019	1.589076	0.410728	-0.385467	-0.103350	-0.819779
11325		14.175900	-0.894990	13.335671	-1.881150	6.415871	1.761159	0.418164	-0.363929	-0.078903	-0.828534
11326		16.285530	-1.424609	14.020469	-1.995178	6.095868	2.004453	0.425779	-0.343537	-0.054042	-0.835329
11327		21.002365	-1.771106	14.398009	-2.031365	5.610101	2.312076	0.433979	-0.325082	-0.029646	-0.839705
11328		25.900639	-3.029768	13.414419	-2.005826	5.189322	2.567845	0.442774	-0.307965	-0.005765	-0.842066
11329		30.251364	-5.367002	11.763437	-1.708075	4.779550	2.640748	0.451868	-0.291753	0.015934	-0.842877
11330		34.318989	-4.680990	10.393108	-1.238111	4.428664	2.479865	0.460589	-0.275647	0.034708	-0.843014
11331		35.891554	-0.053871	8.303290	-1.140919	4.272699	2.259437	0.468211	-0.259916	0.052311	-0.842903
11332		40.475149	7.709074	5.122833	-1.658532	4.138822	2.252386	0.474900	-0.245721	0.071828	-0.841981
11333		42.103022	10.689038	-1.380642	-2.418088	4.397438	2.322743	0.480611	-0.232120	0.095124	-0.840288
11334		43.361860	15.668257	-10.155959	-2.809088	4.657978	2.046791	0.484246	-0.218234	0.120391	-0.838681
11335		43.538302	19.068205	-18.207358	-3.070469	4.707369	1.615574	0.485356	-0.204872	0.146313	-0.837287
11336		34.609561	16.501606	-22.798003	-3.021776	4.258247	1.150729	0.484456	-0.193411	0.170415	-0.835975
11337		20.308611	5.722443	-23.669972	-1.832641	2.726498	-0.005604	0.480663	-0.186365	0.184719	-0.836726
11338		8.435062	-14.019801	-27.961534	2.888972	0.713860	-1.742156	0.475129	-0.177966	0.172873	-0.844213
11339		-27.459657	-4.347819	-10.616173	5.537362	-3.669143	-4.640310	0.462326	-0.184060	0.136951	-0.856517
11340		-5.508799	3.218406	26.412809	4.117752	-4.436074	-3.803001	0.451698	-0.195929	0.105820	-0.863935
11341		18.555105	0.682276	6.736716	3.697923	-4.950929	-2.302880	0.446898	-0.210035	0.076471	-0.866210
11342		16.666637	2.284671	10.374646	2.548880	-4.072634	-1.502445	0.443830	-0.222461	0.054779	-0.866329
11343		13.496784	3.454035	17.888989	1.934700	-3.599826	-0.962308	0.442158	-0.233957	0.037314	-0.865083
11344		10.965624	0.779412	14.700692	1.896542	-3.386533	-1.363247	0.438491	-0.244573	0.020053	-0.864585
11345		28.809636	12.705473	24.016749	2.826757	-2.782570	-2.191251	0.432092	-0.250444	-0.000822	-0.866356
11346		18.380892	-1.057646	16.172809	0.278725	-0.567620	-0.844588	0.428668	-0.252265	-0.004265	-0.867518
11347		5.816102	-1.614773	11.174505	0.617827	-0.616203	-0.545326	0.426933	-0.253575	-0.008931	-0.867956
11348		10.735462	0.563197	13.479109	0.709125	-0.527354	-0.430207	0.425810	-0.254329	-0.013696	-0.868225
11349		4.028987	-1.374311	8.158950	0.199907	0.110053	-0.286205	0.424809	-0.253398	-0.014675	-0.868972
11350		5.877059	-0.965232	9.893811	0.277605	-0.075770	-0.227002	0.424124	-0.253137	-0.016353	-0.869352
11351		5.539439	0.705994	9.635030	0.077588	-0.018880	-0.128242	0.423641	-0.253047	-0.016895	-0.869603
11352		4.535801	-1.125830	9.019036	-0.041553	-0.048442	-0.043298	0.423382	-0.253370	-0.016912	-0.869635
11353		4.493668	-0.855671	9.085421	-0.057205	-0.125962	-0.014291	0.423216	-0.254048	-0.016964	-0.869517
11354		4.599289	0.040212	9.097269	-0.108584	-0.192479	0.030502	0.423172	-0.255150	-0.016914	-0.869217
11355		4.394704	-0.240916	9.076196	-0.185087	-0.254134	0.084139	0.423257	-0.256670	-0.016569	-0.868735
11356		4.296634	-0.883129	8.954777	-0.208709	-0.305597	0.117018	0.423446	-0.258485	-0.016225	-0.868110
11357		4.340592	-1.258388	8.657702	-0.196817	-0.337431	0.127367	0.423687	-0.260396	-0.015958	-0.867426
11358		4.486625	-1.739602	8.471358	-0.170075	-0.346766	0.129555	0.423967	-0.262308	-0.015857	-0.866715
11359		4.757190	-2.345206	8.344840	-0.131541	-0.315641	0.118284	0.424249	-0.263983	-0.015838	-0.866069
11360		4.817821	-2.436054	8.281790	-0.082314	-0.274118	0.100642	0.424522	-0.265388	-0.015997	-0.865502
11361		4.875536	-2.574296	8.206972	-0.029059	-0.218279	0.082520	0.424793	-0.266418	-0.016257	-0.865048
11362		4.750935	-2.436286	8.208733	0.028512	-0.164735	0.064568	0.425067	-0.267110	-0.016705	-0.864692
11363		4.683452	-1.948369	8.357736	0.040447	-0.122180	0.058329	0.425337	-0.267572	-0.017090	-0.864408
11364		4.588281	-1.730810	8.421971	0.041795	-0.113752	0.059334	0.425613	-0.268015	-0.017492	-0.864127
11365		4.480013	-1.289929	8.616805	0.031033	-0.133294	0.064268	0.425895	-0.268546	-0.017852	-0.863816
11366		4.342891	-1.366501	8.661495	-0.022533	-0.171162	0.074969	0.426146	-0.269375	-0.018080	-0.863429
11367		4.542833	-1.770576	8.386997	-0.033196	-0.209450	0.073493	0.426370	-0.270373	-0.018315	-0.863001
11368		4.550996	-1.862300	8.358856	-0.036472	-0.202860	0.059859	0.426531	-0.271366	-0.018569	-0.862605
11369		4.770096	-1.746190	8.211688	-0.026288	-0.192414	0.051998	0.426673	-0.272271	-0.018823	-0.862244
11370		4.482557	-1.635920	8.382527	-0.038374	-0.165510	0.053534	0.426810	-0.273106	-0.018997	-0.861908
11371		4.685936	-2.017579	8.228888	-0.030423	-0.172197	0.045427	0.426922	-0.273932	-0.019197	-0.861586
11372		4.614503	-1.849493	8.327392	-0.041486	-0.140506	0.042661	0.427012	-0.274663	-0.019317	-0.861306
11373		4.489601	-1.934034	8.392953	-0.058128	-0.124836	0.024368	0.427006	-0.275340	-0.019321	-0.861093
11374		3.801461	-2.304169	8.682203	-0.092014	-0.134731	-0.035816	0.426691	-0.276142	-0.019307	-0.860992
11375		3.195168	-3.135741	9.064173	-0.189430	-0.234573	-0.209013	0.425481	-0.277533	-0.019274	-0.861144
11376		4.014570	-2.605348	8.797288	-0.156167	-0.334947	-0.337849	0.423734	-0.279283	-0.019793	-0.861428
11377		5.664312	-1.240656	8.009824	-0.080088	-0.325605	-0.297047	0.422265	-0.280816	-0.020541	-0.861634
11378		4.705494	-0.954078	8.753368	-0.209746	-0.351698	-0.210143	0.420990	-0.282768	-0.020701	-0.861615
11379		4.445279	-0.906495	9.245167	-0.252981	-0.446221	-0.136431	0.419956	-0.285210	-0.020750	-0.861314
11380		4.248229	-1.075222	9.358980	-0.303437	-0.627689	-0.106468	0.418940	-0.288559	-0.020959	-0.860688
11381		4.339844	-1.330639	9.208664	-0.393794	-0.786414	-0.079302	0.417880	-0.292762	-0.021048	-0.859781
11382		4.549449	-1.381969	8.997988	-0.464792	-0.917171	-0.074787	0.416702	-0.297686	-0.021132	-0.858659
11383		4.604759	-1.608286	8.915555	-0.525896	-1.032155	-0.072049	0.415415	-0.303205	-0.021160	-0.857350
11384		4.564934	-2.104061	8.857450	-0.613127	-1.153270	-0.084577	0.413904	-0.309426	-0.021115	-0.855858
11385		4.520570	-2.234029	9.019955	-0.693427	-1.293548	-0.117683	0.412087	-0.316377	-0.021034	-0.854194
11386		4.357277	-2.236196	9.074271	-0.790609	-1.477235	-0.161364	0.409867	-0.324300	-0.021014	-0.852289
11387		4.619370	-1.636429	9.284757	-0.944078	-1.723515	-0.218271	0.407085	-0.333534	-0.020902	-0.850059
11388		4.759540	-1.212693	9.224882	-1.085667	-1.995048	-0.268836	0.403754	-0.344176	-0.020853	-0.847403
11389		4.609767	-1.666570	9.411552	-1.168429	-2.305411	-0.322550	0.399937	-0.356225	-0.021142	-0.844220
11390		3.838788	-2.722354	10.647688	-0.957415	-2.815961	-0.430353	0.395834	-0.369927	-0.023574	-0.840187
11391		2.605188	-3.729261	11.774948	-0.689560	-3.726757	-0.620002	0.391095	-0.386766	-0.029271	-0.834626
11392		2.711784	-6.131152	11.546989	-0.406003	-4.799245	-0.909286	0.385210	-0.407277	-0.038841	-0.827182
11393		1.832942	-6.650189	11.706083	0.060886	-5.917730	-1.265634	0.378146	-0.431099	-0.053190	-0.817515
11394		2.444170	-10.178258	11.409676	0.605395	-6.834615	-1.744875	0.369498	-0.457003	-0.072499	-0.805831
11395		-0.076377	-7.640680	13.313351	1.139484	-7.821828	-2.417200	0.358311	-0.484920	-0.097187	-0.791846
11396		2.004245	-7.931635	14.332791	1.615332	-9.084990	-2.999499	0.344463	-0.515652	-0.127262	-0.774114
11397		6.240451	-6.143985	16.041733	1.819855	-10.203673	-3.387391	0.327888	-0.548699	-0.160737	-0.752052
11398		15.494744	-4.405921	16.974975	1.795205	-10.896162	-3.520575	0.309091	-0.582507	-0.195132	-0.725998
11399		22.491527	-1.191347	17.391951	0.836369	-11.069055	-3.230563	0.287400	-0.616797	-0.224814	-0.697439
11400		30.558161	-7.954207	18.850600	0.171824	-9.914202	-3.016654	0.264980	-0.646435	-0.249082	-0.670721
11401		26.372636	-2.408962	25.630349	0.124426	-7.809947	-3.041123	0.244517	-0.667702	-0.269782	-0.649309
11402		16.226597	-7.536616	24.651585	-0.981089	-5.528520	-2.957823	0.223624	-0.682178	-0.283202	-0.635942
11403		2.003613	-14.213491	11.454677	-0.039431	-3.917699	-3.460302	0.206479	-0.689230	-0.299200	-0.626744
11404		6.245017	-6.227809	16.835660	1.797313	-6.879036	-3.277626	0.191290	-0.702992	-0.323359	-0.603861
11405		28.020219	-11.883402	31.517897	2.629086	-3.302221	-2.956694	0.185758	-0.705080	-0.344957	-0.591068
11406		19.763820	-1.421322	23.384206	1.828729	-0.039856	-2.116566	0.185757	-0.699569	-0.357736	-0.590019
11407		9.615126	-1.861115	23.358528	0.650154	2.322469	-1.399828	0.188133	-0.689551	-0.362124	-0.598324
11408		0.114252	1.542728	17.903506	-0.612043	3.847222	-0.764027	0.190993	-0.677181	-0.358774	-0.613374
11409		-6.288715	0.776875	12.717622	-1.846476	4.435515	-0.222433	0.192366	-0.664984	-0.349075	-0.631615
11410		-8.515392	-0.696334	8.024456	-2.702326	4.286337	0.179542	0.191871	-0.654341	-0.335170	-0.650142
11411		-7.504325	-3.083217	5.315161	-2.911868	3.936099	0.513896	0.191016	-0.645278	-0.319748	-0.667001
11412		-5.259503	-4.347114	4.575957	-2.683570	3.776744	0.763511	0.191388	-0.636470	-0.304195	-0.682453
11413		-2.860418	-5.390453	4.595263	-2.201954	3.777509	0.995753	0.193916	-0.627305	-0.289526	-0.696462
11414		-0.856043	-5.874071	4.885781	-1.531576	3.946990	1.195343	0.199417	-0.616788	-0.276191	-0.709594
11415		0.737842	-4.717864	5.680032	-0.889468	4.223037	1.357861	0.207695	-0.604666	-0.264355	-0.722051
11416		2.086170	-2.122746	6.747392	-0.543626	4.535022	1.539896	0.218033	-0.590882	-0.252643	-0.734501
11417		3.501154	0.268418	7.745504	-0.571272	4.838321	1.756643	0.229313	-0.576042	-0.239817	-0.747047
11418		4.813200	1.712765	8.282524	-0.870588	5.167578	1.966560	0.240845	-0.560064	-0.224576	-0.760189
11419		5.917594	2.249116	8.659338	-1.257307	5.485154	2.107151	0.251987	-0.543169	-0.206998	-0.773707
11420		6.668969	1.873051	8.780036	-1.591530	5.779004	2.162986	0.262598	-0.524982	-0.187254	-0.787637
11421		7.218111	1.111555	8.833404	-1.758470	6.018441	2.098544	0.272448	-0.505589	-0.166608	-0.801495
11422		7.646462	0.505703	9.150931	-1.777512	6.191124	1.933300	0.281487	-0.484679	-0.145727	-0.815239
11423		8.289069	0.251138	9.901869	-1.744752	6.302617	1.724557	0.289475	-0.462693	-0.125265	-0.828510
11424		9.628685	0.316423	11.292375	-1.767749	6.381675	1.558661	0.296486	-0.439610	-0.104679	-0.841357
11425		11.882260	0.507315	12.919107	-1.900082	6.478719	1.519517	0.302718	-0.415931	-0.083473	-0.853461
11426		14.027420	0.041762	14.363356	-2.105779	6.611910	1.676809	0.308946	-0.391395	-0.060630	-0.864689
11427		16.229013	-0.213024	15.127411	-2.298176	6.703122	1.975405	0.315702	-0.366527	-0.036304	-0.874455
11428		18.788447	-0.441048	15.316214	-2.512178	6.609596	2.439176	0.323694	-0.341847	-0.010213	-0.882190
11429		22.838830	-2.562770	14.953563	-2.573809	6.252419	2.948683	0.333309	-0.318606	0.016259	-0.887204
11430		28.098824	-6.159541	13.299846	-2.158651	5.759243	3.308987	0.344752	-0.296276	0.040669	-0.889782
11431		32.668310	-8.741119	10.929048	-1.210236	5.182745	3.413982	0.357641	-0.274709	0.059805	-0.890534
11432		34.789294	-8.121669	7.778418	-0.173815	4.618692	3.294409	0.371151	-0.253436	0.073181	-0.890316
11433		35.443742	-2.683732	3.920896	0.498866	3.841079	3.053149	0.384296	-0.234427	0.081648	-0.889210
11434		42.756835	6.592838	-1.392896	0.356880	3.144227	2.979789	0.396978	-0.218574	0.089360	-0.886932
11435		50.635536	18.314579	-9.984235	-0.700016	2.969273	2.758638	0.407463	-0.205691	0.101082	-0.883995
11436		52.593177	31.871213	-20.297993	-2.874739	3.464895	2.449791	0.414093	-0.194977	0.123181	-0.880532
11437		44.685594	24.418425	-24.569978	-4.469386	3.598615	2.087541	0.417278	-0.187070	0.152154	-0.876204
11438		27.419224	1.820426	-27.440679	-2.721907	2.792476	0.492416	0.415187	-0.180054	0.170341	-0.875320
11439		15.127438	-6.020502	-24.465345	1.233016	1.065084	-2.225164	0.405546	-0.174573	0.165398	-0.881873
11440		0.663793	-2.185117	-15.141997	5.094480	0.071030	-4.802410	0.387970	-0.167574	0.139280	-0.895544
11441		-9.618932	1.547522	20.736219	3.637236	-3.889800	-4.900365	0.370695	-0.181002	0.111724	-0.904069
11442		5.137385	-1.906030	22.467678	2.485692	-3.175091	-3.066246	0.360116	-0.192268	0.092040	-0.908228
11443		15.440865	-6.317238	1.248367	2.394291	-3.194424	-1.620402	0.355867	-0.203107	0.073915	-0.909199
11444		6.625784	-2.065397	10.488269	1.663645	-4.138024	-0.757426	0.354947	-0.219211	0.058145	-0.906961
11445		14.017858	2.187967	16.035202	1.761292	-4.416991	-0.725443	0.354132	-0.236257	0.041446	-0.903911
11446		31.293994	14.449604	27.115766	3.042182	-2.897732	-2.182174	0.347757	-0.244254	0.020065	-0.904988
11447		16.348553	2.232272	17.530346	-0.273358	-0.236189	-0.802591	0.343779	-0.245828	0.019990	-0.906082
11448		9.165407	-6.029559	12.260983	0.585179	-0.707595	-0.457158	0.342345	-0.248091	0.015518	-0.906096
11449		10.177929	1.213549	11.249960	0.630746	0.061011	-0.311492	0.341649	-0.246748	0.012389	-0.906774
11450		3.136220	0.371704	9.747523	0.147780	-0.036066	-0.157279	0.341083	-0.246715	0.011410	-0.907008
11451		5.733649	-1.787211	8.970184	0.098317	-0.031479	-0.102873	0.340715	-0.246701	0.010778	-0.907158
11452		4.683661	-1.166646	9.241743	0.094167	-0.045073	-0.087368	0.340405	-0.246801	0.010104	-0.907255
11453		4.206313	-0.764184	9.104718	0.036450	-0.113412	-0.048055	0.340210	-0.247265	0.009674	-0.907207
11454		4.571200	-0.573814	9.184368	-0.015666	-0.194700	-0.017192	0.340083	-0.248232	0.009319	-0.906994
11455		4.653640	-0.403458	9.056750	-0.084460	-0.251300	0.031001	0.340099	-0.249529	0.009290	-0.906632
11456		4.298309	-0.939996	8.988223	-0.110570	-0.291591	0.071837	0.340259	-0.251097	0.009299	-0.906139
11457		4.267788	-0.966942	8.978087	-0.101958	-0.335199	0.080441	0.340473	-0.252805	0.009260	-0.905584
