// General information: 
//  MT Manager version: 2019.1.1 
//  XDA version: 2019.1.1 build 3010 rev 85319 built on 2019-03-01
// Device information: 
//  DeviceId: 00B485FF
//  ProductCode: MTW2-3A7G6
//  Firmware Version: 4.6.0
//  Hardware Version: 2.0.0
// Device settings: 
//  Filter Profile: human(46.1)
//  Option Flags: Orientation Smoother Disabled, AHS Disabled, ICC Disabled
// Coordinate system: ENU
PacketCounter	SampleTimeFine	Acc_X	Acc_Y	Acc_Z	Gyr_X	Gyr_Y	Gyr_Z	Quat_q0	Quat_q1	Quat_q2	Quat_q3
10291		9.644897	0.481841	-1.529937	-0.128457	0.009696	0.048914	-0.487857	0.452725	0.622132	0.412296
10292		9.591449	0.545136	-1.689860	-0.078933	0.011765	0.048709	-0.487792	0.453052	0.621853	0.412434
10293		9.591985	0.541828	-1.687877	-0.012751	0.024377	0.036417	-0.487895	0.453144	0.621703	0.412438
10294		9.670339	0.600322	-1.508634	-0.030737	0.023580	0.039569	-0.487956	0.453300	0.621516	0.412476
10295		9.667595	0.706106	-1.481963	-0.035917	0.026458	0.041696	-0.488024	0.453461	0.621301	0.412542
10296		9.654892	0.662013	-1.543242	-0.078718	0.024503	0.043456	-0.487988	0.453746	0.621002	0.412721
10297		9.601151	0.540824	-1.630156	-0.055965	0.030777	0.040545	-0.488022	0.453944	0.620737	0.412861
10298		9.611693	0.555236	-1.556592	-0.056391	0.027568	0.040797	-0.488041	0.454160	0.620483	0.412984
10299		9.649707	0.588792	-1.491305	-0.067821	0.034919	0.039406	-0.488059	0.454375	0.620185	0.413173
10300		9.739442	0.539644	-1.513520	-0.052939	0.044843	0.041930	-0.488142	0.454551	0.619893	0.413321
10301		9.644538	0.650541	-1.421510	-0.111222	0.053289	0.054126	-0.488150	0.454882	0.619425	0.413647
10302		9.594554	0.552653	-1.513307	-0.155282	0.031897	0.058535	-0.487995	0.455388	0.618915	0.414038
10303		9.610323	0.466424	-1.719676	-0.136398	0.029041	0.053992	-0.487870	0.455829	0.618455	0.414388
10304		9.655979	0.563669	-1.695795	-0.066869	0.034815	0.049044	-0.487904	0.456080	0.618142	0.414538
10305		9.635828	0.552092	-1.636386	-0.044080	0.041262	0.049091	-0.488015	0.456254	0.617855	0.414643
10306		9.642849	0.541481	-1.555414	-0.013402	0.044244	0.046622	-0.488195	0.456347	0.617636	0.414656
10307		9.628670	0.522950	-1.419058	0.010013	0.043843	0.042728	-0.488423	0.456362	0.617470	0.414616
10308		9.561350	0.555167	-1.414666	0.003461	0.035375	0.041466	-0.488603	0.456415	0.617320	0.414571
10309		9.633723	0.538333	-1.418699	-0.008077	0.019751	0.038621	-0.488707	0.456511	0.617185	0.414543
10310		9.682962	0.561383	-1.480732	-0.021418	0.013005	0.042662	-0.488762	0.456674	0.617035	0.414521
10311		9.697668	0.536283	-1.552272	-0.021659	0.011468	0.044209	-0.488822	0.456837	0.616880	0.414503
10312		9.708658	0.487565	-1.617868	-0.017724	0.010734	0.047864	-0.488889	0.457012	0.616732	0.414451
10313		9.675669	0.567737	-1.606576	-0.005533	0.019348	0.043890	-0.489009	0.457119	0.616591	0.414401
10314		9.664601	0.572482	-1.478895	-0.011790	0.014324	0.048066	-0.489101	0.457272	0.616446	0.414339
10315		9.643937	0.560019	-1.421575	-0.013375	0.024695	0.053383	-0.489239	0.457417	0.616254	0.414301
10316		9.628132	0.606159	-1.429465	-0.010386	0.015826	0.053410	-0.489350	0.457581	0.616097	0.414224
10317		9.678182	0.645707	-1.521137	-0.018813	0.014339	0.052031	-0.489440	0.457755	0.615922	0.414183
10318		9.634711	0.673263	-1.521242	-0.027066	0.014503	0.051943	-0.489506	0.457958	0.615736	0.414158
10319		9.684235	0.695499	-1.583403	-0.044149	0.010022	0.050740	-0.489522	0.458201	0.615522	0.414189
10320		9.706053	0.699264	-1.637337	-0.053487	0.011953	0.047872	-0.489512	0.458462	0.615296	0.414249
10321		9.654349	0.663222	-1.595819	-0.059127	0.011615	0.050214	-0.489499	0.458735	0.615048	0.414329
10322		9.689067	0.689261	-1.554999	-0.052530	0.019896	0.048619	-0.489516	0.458980	0.614802	0.414402
10323		9.641289	0.676598	-1.518638	-0.061940	0.021940	0.048589	-0.489526	0.459235	0.614526	0.414519
10324		9.669736	0.691710	-1.524057	-0.071182	0.025621	0.049847	-0.489521	0.459518	0.614224	0.414658
10325		9.642641	0.669110	-1.513367	-0.075161	0.016665	0.050982	-0.489488	0.459823	0.613928	0.414797
10326		9.662406	0.698064	-1.369773	-0.086391	0.015873	0.052808	-0.489425	0.460172	0.613612	0.414953
10327		9.663817	0.711833	-1.396420	-0.097236	0.029872	0.059379	-0.489399	0.460531	0.613217	0.415168
10328		9.652664	0.703934	-1.516378	-0.103340	0.035974	0.057113	-0.489368	0.460895	0.612805	0.415409
10329		9.682040	0.737090	-1.550380	-0.105121	0.021362	0.051075	-0.489281	0.461264	0.612433	0.415650
10330		9.711281	0.771148	-1.585052	-0.113416	0.019525	0.041097	-0.489142	0.461636	0.612077	0.415925
10331		9.704762	0.740810	-1.599899	-0.122435	0.022751	0.030944	-0.488979	0.461983	0.611710	0.416272
10332		9.686351	0.641066	-1.597141	-0.117751	0.026440	0.027096	-0.488823	0.462308	0.611358	0.416611
10333		9.609891	0.516881	-1.631212	-0.106807	0.035291	0.021989	-0.488715	0.462564	0.611013	0.416961
10334		9.631949	0.457496	-1.541797	-0.086967	0.027535	0.017829	-0.488613	0.462782	0.610743	0.417232
10335		9.629999	0.402382	-1.450675	-0.084201	0.028622	0.021552	-0.488536	0.462993	0.610463	0.417499
10336		9.649443	0.355353	-1.415500	-0.080689	0.013067	0.020389	-0.488409	0.463233	0.610237	0.417712
10337		9.660917	0.406211	-1.401172	-0.085269	0.022375	0.027657	-0.488322	0.463478	0.609955	0.417952
10338		9.627191	0.375467	-1.438056	-0.093511	0.024199	0.031634	-0.488224	0.463761	0.609649	0.418200
10339		9.639502	0.298832	-1.420703	-0.099229	0.023788	0.033911	-0.488121	0.464058	0.609320	0.418470
10340		9.588117	0.282571	-1.408576	-0.072497	0.016367	0.034385	-0.488052	0.464313	0.609071	0.418630
10341		9.693764	0.345232	-1.485274	-0.035108	0.014757	0.030114	-0.488063	0.464458	0.608908	0.418695
10342		9.740598	0.365450	-1.569537	-0.013427	0.029492	0.020353	-0.488141	0.464498	0.608783	0.418741
10343		9.696528	0.378383	-1.538467	0.011092	0.033783	0.009288	-0.488274	0.464426	0.608717	0.418761
10344		9.650542	0.355221	-1.449119	0.032688	0.027343	0.002060	-0.488414	0.464300	0.608736	0.418709
10345		9.601282	0.326978	-1.384191	0.045478	0.019740	0.004733	-0.488573	0.464158	0.608788	0.418605
10346		9.648076	0.347680	-1.469079	0.072751	0.017216	0.009158	-0.488789	0.463976	0.608901	0.418391
10347		9.684385	0.411178	-1.486727	0.066801	0.015289	0.012981	-0.489001	0.463816	0.608990	0.418192
10348		9.662913	0.400532	-1.430636	0.056493	0.010966	0.013364	-0.489169	0.463699	0.609074	0.418002
10349		9.719963	0.454179	-1.474515	0.048352	0.012737	0.014509	-0.489334	0.463594	0.609128	0.417848
10350		9.644504	0.442542	-1.461729	0.040682	0.007918	0.017355	-0.489464	0.463534	0.609177	0.417689
10351		9.701551	0.495891	-1.506000	0.035005	0.007560	0.019657	-0.489592	0.463489	0.609204	0.417550
10352		9.711109	0.509048	-1.434137	0.033138	0.014489	0.019562	-0.489730	0.463442	0.609216	0.417424
10353		9.660596	0.510894	-1.452211	0.027971	0.017219	0.018790	-0.489870	0.463392	0.609205	0.417331
10354		9.694138	0.519350	-1.381585	0.034056	0.022521	0.023211	-0.490042	0.463337	0.609191	0.417211
10355		9.720436	0.548506	-1.440343	0.039798	0.022768	0.018059	-0.490225	0.463244	0.609193	0.417096
10356		9.733204	0.616280	-1.455130	0.046214	0.029516	0.018098	-0.490436	0.463129	0.609198	0.416968
10357		9.737858	0.637376	-1.458119	0.053683	0.032661	0.013926	-0.490673	0.462969	0.609213	0.416844
10358		9.687576	0.639724	-1.474921	0.049402	0.030163	0.007641	-0.490871	0.462813	0.609247	0.416734
10359		9.652935	0.590962	-1.482321	0.056781	0.033387	0.006303	-0.491102	0.462620	0.609284	0.416623
10360		9.608731	0.604031	-1.452112	0.056969	0.025241	0.009546	-0.491306	0.462461	0.609342	0.416473
10361		9.658795	0.580380	-1.401487	0.036351	0.014995	0.006241	-0.491433	0.462356	0.609383	0.416382
10362		9.730695	0.565155	-1.406022	0.025955	0.020572	0.007525	-0.491548	0.462277	0.609391	0.416321
10363		9.718698	0.493772	-1.386662	0.022185	0.024772	0.012103	-0.491684	0.462205	0.609364	0.416279
10364		9.713108	0.481450	-1.431164	0.034497	0.035173	0.015244	-0.491880	0.462099	0.609337	0.416206
10365		9.665937	0.489192	-1.423867	0.036226	0.036259	0.009248	-0.492078	0.461960	0.609317	0.416155
10366		9.672539	0.498207	-1.373337	0.035868	0.034801	0.013618	-0.492272	0.461846	0.609297	0.416081
10367		9.631367	0.516352	-1.318997	0.029941	0.032933	0.017460	-0.492462	0.461755	0.609254	0.416021
10368		9.682571	0.510314	-1.296714	0.020493	0.023549	0.015227	-0.492589	0.461707	0.609226	0.415964
10369		9.668000	0.481724	-1.412360	0.024101	0.030971	0.018464	-0.492763	0.461636	0.609174	0.415914
10370		9.629737	0.505078	-1.334936	0.020551	0.025252	0.019344	-0.492904	0.461597	0.609132	0.415850
10371		9.657034	0.503201	-1.311038	0.029763	0.023340	0.025092	-0.493080	0.461549	0.609095	0.415750
10372		9.681289	0.495605	-1.311222	0.020390	0.015685	0.026990	-0.493206	0.461553	0.609061	0.415645
10373		9.729364	0.483057	-1.313720	0.011767	0.014442	0.031216	-0.493326	0.461587	0.608994	0.415564
10374		9.696931	0.468325	-1.381084	0.029035	0.020425	0.033832	-0.493501	0.461581	0.608950	0.415426
10375		9.711273	0.552251	-1.425744	0.062099	0.031013	0.036544	-0.493798	0.461471	0.608936	0.415216
10376		9.690984	0.558660	-1.397559	0.051341	0.029827	0.024138	-0.494033	0.461361	0.608937	0.415057
10377		9.655025	0.490905	-1.375294	0.041081	0.033523	0.015602	-0.494248	0.461234	0.608919	0.414970
10378		9.695084	0.559149	-1.367975	0.055204	0.036929	0.018841	-0.494503	0.461084	0.608922	0.414828
10379		9.738097	0.788998	-1.423021	0.035961	0.043302	0.036930	-0.494778	0.461016	0.608821	0.414725
10380		9.624560	0.772168	-1.250539	0.024812	0.038977	0.024793	-0.494982	0.460956	0.608741	0.414665
10381		9.688510	0.503491	-1.346239	-0.015633	0.013809	0.021308	-0.495017	0.461027	0.608642	0.414689
10382		9.696006	0.530464	-1.326929	0.008611	0.017978	0.015895	-0.495101	0.461022	0.608602	0.414654
10383		9.723375	0.499110	-1.221070	-0.015697	0.012090	0.017185	-0.495122	0.461085	0.608515	0.414686
10384		9.723567	0.497796	-1.220079	-0.031652	0.005881	0.015794	-0.495076	0.461205	0.608421	0.414745
10385		9.747285	0.522174	-1.304028	-0.021124	0.001879	0.015828	-0.495052	0.461297	0.608352	0.414773
10386		9.708975	0.498270	-1.419458	0.007981	0.014992	0.021820	-0.495137	0.461318	0.608305	0.414717
10387		9.632808	0.565659	-1.298255	0.012396	0.017261	0.022408	-0.495249	0.461316	0.608251	0.414664
10388		9.651119	0.547663	-1.346086	0.007289	0.010302	0.023622	-0.495322	0.461354	0.608210	0.414595
10389		9.643296	0.625307	-1.337519	-0.000622	0.004051	0.028043	-0.495375	0.461428	0.608151	0.414536
10390		9.717936	0.613645	-1.319510	-0.028380	-0.007602	0.027388	-0.495319	0.461602	0.608072	0.414525
10391		9.685545	0.569718	-1.306494	-0.053423	-0.008448	0.028456	-0.495213	0.461835	0.607933	0.414596
10392		9.709494	0.562536	-1.308626	-0.047402	-0.003218	0.032833	-0.495138	0.462065	0.607790	0.414639
10393		9.660465	0.582283	-1.357450	-0.051383	0.009078	0.034083	-0.495103	0.462274	0.607599	0.414728
10394		9.655082	0.538407	-1.320937	-0.056803	0.010292	0.034820	-0.495052	0.462506	0.607398	0.414824
10395		9.676298	0.525827	-1.345172	-0.072109	0.008759	0.031591	-0.494962	0.462760	0.607169	0.414983
10396		9.645427	0.500065	-1.360165	-0.068455	0.004614	0.029853	-0.494857	0.463018	0.606969	0.415114
10397		9.630453	0.549717	-1.369292	-0.073336	-0.000838	0.029489	-0.494731	0.463287	0.606767	0.415260
10398		9.694796	0.504740	-1.392691	-0.069572	-0.005059	0.024922	-0.494583	0.463552	0.606600	0.415384
10399		9.742604	0.493355	-1.396112	-0.068420	0.004455	0.026977	-0.494479	0.463790	0.606400	0.415533
10400		9.699585	0.494208	-1.314718	-0.070503	0.008042	0.021426	-0.494362	0.464020	0.606206	0.415699
10401		9.668582	0.469737	-1.330040	-0.074034	0.000554	0.015335	-0.494211	0.464244	0.606030	0.415885
10402		9.662771	0.458410	-1.377182	-0.058142	-0.002912	0.021573	-0.494088	0.464465	0.605889	0.415989
10403		9.707551	0.442413	-1.404590	-0.061947	-0.002198	0.015050	-0.493955	0.464664	0.605746	0.416133
10404		9.677947	0.405256	-1.367535	-0.065813	0.000275	0.015469	-0.493813	0.464879	0.605595	0.416282
10405		9.673622	0.381381	-1.361625	-0.064424	-0.000086	0.013856	-0.493677	0.465077	0.605444	0.416442
10406		9.706683	0.313849	-1.401277	-0.058972	0.000361	0.017221	-0.493554	0.465280	0.605302	0.416566
10407		9.690210	0.346352	-1.381367	-0.042993	-0.004843	0.016528	-0.493460	0.465441	0.605203	0.416643
10408		9.701918	0.397098	-1.369406	-0.039423	-0.008884	0.017623	-0.493354	0.465615	0.605124	0.416687
10409		9.745100	0.393841	-1.450458	-0.042094	-0.006608	0.022104	-0.493268	0.465795	0.605018	0.416743
10410		9.724250	0.402784	-1.424976	-0.046328	0.000706	0.013876	-0.493168	0.465956	0.604910	0.416839
10411		9.688451	0.463753	-1.408213	-0.033319	0.004314	0.013143	-0.493116	0.466066	0.604813	0.416918
10412		9.684156	0.440002	-1.401981	-0.041130	0.005930	0.005767	-0.493027	0.466178	0.604721	0.417030
10413		9.691672	0.468615	-1.382724	-0.038585	0.013444	0.002155	-0.492970	0.466248	0.604617	0.417172
10414		9.663563	0.450712	-1.374162	-0.046512	0.005384	-0.000456	-0.492854	0.466356	0.604529	0.417315
10415		9.684519	0.441662	-1.398943	-0.054443	0.007058	-0.005013	-0.492725	0.466457	0.604423	0.417508
10416		9.669869	0.386013	-1.434491	-0.059021	0.004824	-0.002823	-0.492574	0.466590	0.604315	0.417694
10417		9.668446	0.368438	-1.404770	-0.062684	0.000829	0.004949	-0.492427	0.466754	0.604184	0.417873
10418		9.658195	0.303732	-1.364161	-0.059550	0.003366	0.004336	-0.492285	0.466913	0.604063	0.418038
10419		9.682037	0.299023	-1.365939	-0.055111	-0.004104	0.006886	-0.492145	0.467074	0.603956	0.418177
10420		9.711757	0.335540	-1.402564	-0.036705	0.000053	0.012397	-0.492062	0.467207	0.603873	0.418246
10421		9.716189	0.358290	-1.408090	-0.040027	-0.004119	0.011692	-0.491967	0.467344	0.603788	0.418327
10422		9.664108	0.344180	-1.398966	-0.046890	-0.002601	0.014012	-0.491856	0.467513	0.603686	0.418416
10423		9.644702	0.371682	-1.402714	-0.047449	-0.005713	0.017059	-0.491749	0.467690	0.603576	0.418503
10424		9.684933	0.332372	-1.425427	-0.039573	-0.009069	0.017485	-0.491642	0.467864	0.603498	0.418546
10425		9.702586	0.393028	-1.365840	-0.045073	-0.009544	0.014084	-0.491523	0.468033	0.603410	0.418625
10426		9.702542	0.392567	-1.366291	-0.043983	-0.003347	0.007972	-0.491404	0.468178	0.603329	0.418718
10427		9.678673	0.397283	-1.364737	-0.037681	-0.007979	0.008695	-0.491297	0.468307	0.603266	0.418791
10428		9.729205	0.392198	-1.345458	-0.042906	-0.006899	0.003768	-0.491161	0.468444	0.603206	0.418884
10429		9.694992	0.396189	-1.467645	-0.031966	0.002115	0.004525	-0.491087	0.468529	0.603137	0.418975
10430		9.712784	0.457739	-1.406998	-0.026686	-0.000686	0.002494	-0.491005	0.468609	0.603099	0.419036
10431		9.715801	0.462771	-1.382830	-0.031261	0.006818	0.002770	-0.490946	0.468675	0.603025	0.419139
10432		9.648843	0.501295	-1.381765	-0.043199	0.001269	0.003367	-0.490833	0.468794	0.602945	0.419252
10433		9.724776	0.510132	-1.392703	-0.032034	0.000440	0.000386	-0.490747	0.468869	0.602890	0.419348
10434		9.677174	0.520488	-1.388328	-0.039775	0.005374	0.001248	-0.490650	0.468965	0.602812	0.419467
10435		9.690616	0.483098	-1.432317	-0.048341	-0.007464	-0.002502	-0.490496	0.469087	0.602750	0.419600
10436		9.715849	0.465341	-1.381628	-0.043166	-0.000465	-0.003605	-0.490363	0.469188	0.602690	0.419727
10437		9.677238	0.414793	-1.416122	-0.039572	0.005253	-0.004414	-0.490264	0.469258	0.602617	0.419870
10438		9.674298	0.411092	-1.439414	-0.041487	0.000755	-0.006733	-0.490132	0.469343	0.602565	0.420003
10439		9.701088	0.379567	-1.335439	-0.037135	0.003091	-0.003263	-0.490035	0.469414	0.602501	0.420130
10440		9.720555	0.384332	-1.413202	-0.036379	0.009450	-0.000880	-0.489954	0.469487	0.602425	0.420252
10441		9.617952	0.376468	-1.423063	-0.031642	0.003549	0.000133	-0.489878	0.469552	0.602364	0.420354
10442		9.698407	0.408484	-1.438787	-0.025654	0.008820	0.007447	-0.489837	0.469625	0.602293	0.420422
10443		9.682101	0.441277	-1.417597	-0.031993	0.003675	0.008599	-0.489780	0.469714	0.602214	0.420503
10444		9.710436	0.459424	-1.424453	-0.033744	0.000782	0.007580	-0.489696	0.469824	0.602145	0.420576
10445		9.744670	0.487223	-1.383796	-0.036203	0.002922	0.006416	-0.489621	0.469921	0.602062	0.420675
10446		9.685238	0.445691	-1.392676	-0.031665	0.003530	0.000116	-0.489535	0.469997	0.602008	0.420767
10447		9.642092	0.479611	-1.393402	-0.025655	0.005469	-0.003645	-0.489471	0.470032	0.601964	0.420865
10448		9.710702	0.460369	-1.422330	-0.014362	0.007965	0.001655	-0.489442	0.470061	0.601932	0.420912
10449		9.685479	0.446876	-1.390616	-0.014411	0.006322	-0.002475	-0.489409	0.470071	0.601907	0.420976
10450		9.716702	0.470498	-1.373866	0.001099	-0.003515	-0.004202	-0.489369	0.470068	0.601950	0.420965
10451		9.679553	0.438159	-1.438129	-0.002617	0.000544	-0.002465	-0.489346	0.470059	0.601965	0.420979
10452		9.670644	0.391428	-1.427781	-0.003170	-0.002574	0.000573	-0.489309	0.470079	0.601985	0.420971
10453		9.691545	0.381538	-1.453413	0.007533	0.004916	0.002911	-0.489334	0.470054	0.601998	0.420952
10454		9.682604	0.442304	-1.413838	0.009002	0.006244	0.005449	-0.489362	0.470040	0.602011	0.420916
10455		9.703641	0.431899	-1.438707	0.004139	0.012176	0.007257	-0.489411	0.470020	0.601989	0.420913
10456		9.705267	0.417035	-1.384926	-0.003462	0.008944	0.011299	-0.489430	0.470049	0.601956	0.420905
10457		9.709903	0.439212	-1.389251	0.002045	0.009411	0.014710	-0.489480	0.470064	0.601918	0.420883
10458		9.690754	0.466299	-1.391425	-0.000133	0.013114	0.012029	-0.489522	0.470079	0.601880	0.420873
10459		9.676198	0.408878	-1.427216	0.002874	0.014085	0.010150	-0.489578	0.470070	0.601843	0.420872
10460		9.655579	0.417505	-1.399977	0.001887	0.017555	0.011526	-0.489636	0.470069	0.601799	0.420868
10461		9.654290	0.397659	-1.369613	0.008056	0.011349	0.010952	-0.489698	0.470054	0.601778	0.420843
10462		9.688619	0.424202	-1.328380	0.018584	0.007480	0.013863	-0.489770	0.470039	0.601789	0.420759
10463		9.702180	0.492876	-1.343585	0.013827	0.003623	0.014721	-0.489830	0.470036	0.601792	0.420689
10464		9.720248	0.477056	-1.392806	0.009745	0.002842	0.009717	-0.489859	0.470040	0.601805	0.420632
10465		9.665266	0.457711	-1.407398	0.003566	-0.000698	0.012168	-0.489875	0.470066	0.601801	0.420590
10466		9.690752	0.470464	-1.437884	0.011018	0.010673	0.004942	-0.489920	0.470037	0.601809	0.420559
10467		9.674481	0.503324	-1.416572	0.009508	0.007706	-0.001722	-0.489948	0.469988	0.601828	0.420553
10468		9.726568	0.484090	-1.342798	0.009121	0.015934	0.000738	-0.489996	0.469940	0.601828	0.420551
10469		9.692640	0.456097	-1.381635	0.006507	0.016480	-0.001728	-0.490044	0.469880	0.601820	0.420574
10470		9.694186	0.442192	-1.327438	0.011688	0.013743	-0.000924	-0.490088	0.469825	0.601835	0.420563
10471		9.673676	0.484434	-1.382382	0.015563	0.011280	-0.001352	-0.490142	0.469754	0.601858	0.420545
10472		9.694720	0.474658	-1.407149	0.011088	0.008985	-0.002011	-0.490168	0.469707	0.601886	0.420528
10473		9.681311	0.512705	-1.362133	0.005468	0.008563	-0.002601	-0.490189	0.469661	0.601899	0.420536
10474		9.678461	0.508375	-1.385347	-0.011988	0.002546	-0.005453	-0.490134	0.469674	0.601902	0.420582
10475		9.685938	0.429061	-1.394952	-0.003360	0.003934	-0.006741	-0.490111	0.469648	0.601916	0.420618
10476		9.674121	0.378169	-1.407660	-0.005654	0.007679	-0.006603	-0.490084	0.469631	0.601922	0.420659
10477		9.681616	0.407009	-1.388179	0.004717	0.011950	-0.006874	-0.490104	0.469569	0.601933	0.420690
10478		9.689109	0.435715	-1.368704	0.001271	0.007826	-0.004780	-0.490097	0.469540	0.601950	0.420706
10479		9.668637	0.370401	-1.452612	-0.000194	0.006500	-0.007317	-0.490087	0.469502	0.601963	0.420741
10480		9.695406	0.370678	-1.430288	0.007600	0.003219	-0.004041	-0.490082	0.469469	0.602003	0.420726
10481		9.676156	0.399040	-1.432993	0.011122	0.010625	0.002115	-0.490132	0.469421	0.602011	0.420711
10482		9.698584	0.375053	-1.404657	0.017454	0.015757	0.000965	-0.490199	0.469353	0.602029	0.420683
10483		9.675010	0.379569	-1.401157	0.024810	0.019056	0.002568	-0.490307	0.469255	0.602043	0.420646
10484		9.697471	0.355475	-1.372512	0.018595	0.013879	0.000893	-0.490371	0.469188	0.602068	0.420610
10485		9.700564	0.359857	-1.347329	0.020333	0.016757	0.001905	-0.490461	0.469103	0.602082	0.420581
10486		9.662040	0.416105	-1.353117	0.028517	0.005249	0.002731	-0.490525	0.469034	0.602145	0.420491
10487		9.681850	0.419642	-1.430866	0.029503	0.011509	-0.000537	-0.490614	0.468932	0.602195	0.420431
10488		9.708681	0.419148	-1.408152	0.030488	0.008033	-0.001908	-0.490682	0.468838	0.602267	0.420353
10489		9.684976	0.424105	-1.405458	0.022697	0.011311	-0.005190	-0.490744	0.468740	0.602312	0.420325
10490		9.681882	0.386832	-1.346377	0.036527	0.011594	-0.001547	-0.490838	0.468626	0.602387	0.420236
10491		9.693878	0.438064	-1.332172	0.032369	0.012499	0.000394	-0.490938	0.468517	0.602438	0.420168
10492		9.713798	0.441380	-1.409461	0.045166	0.014602	0.001276	-0.491067	0.468384	0.602517	0.420053
10493		9.681047	0.507164	-1.367607	0.041126	0.015458	0.000390	-0.491197	0.468245	0.602580	0.419963
10494		9.654595	0.506705	-1.388127	0.032938	0.017230	0.001452	-0.491306	0.468137	0.602626	0.419890
10495		9.678151	0.469074	-1.307092	0.020262	0.005346	-0.000345	-0.491356	0.468069	0.602672	0.419842
10496		9.678247	0.468855	-1.306460	0.022272	0.009774	-0.000865	-0.491412	0.467996	0.602719	0.419790
10497		9.694856	0.435317	-1.325942	0.021992	0.008220	0.000659	-0.491474	0.467924	0.602757	0.419743
10498		9.689285	0.425212	-1.372712	0.019264	0.008812	0.001013	-0.491525	0.467866	0.602796	0.419693
10499		9.692756	0.461686	-1.429889	0.031061	0.014381	0.003253	-0.491633	0.467766	0.602833	0.419625
10500		9.717979	0.442523	-1.377591	0.029877	0.014598	-0.000808	-0.491722	0.467664	0.602884	0.419561
10501		9.718194	0.442197	-1.376176	0.026001	0.017062	-0.000393	-0.491819	0.467558	0.602912	0.419523
10502		9.683977	0.381480	-1.332774	0.027883	0.021535	0.001904	-0.491931	0.467456	0.602935	0.419474
10503		9.670574	0.419119	-1.286959	0.029024	0.019656	0.001838	-0.492046	0.467347	0.602956	0.419430
10504		9.694631	0.413355	-1.287302	0.036358	0.013213	0.005350	-0.492158	0.467250	0.603011	0.419328
10505		9.660834	0.384196	-1.326634	0.041644	0.010411	0.003339	-0.492280	0.467131	0.603080	0.419218
10506		9.707531	0.386840	-1.382125	0.044790	0.012952	0.002745	-0.492405	0.467006	0.603158	0.419097
10507		9.643515	0.429206	-1.357607	0.058114	0.008400	0.002489	-0.492557	0.466847	0.603270	0.418936
10508		9.679251	0.474939	-1.346172	0.053217	0.002961	0.002070	-0.492670	0.466719	0.603393	0.418768
10509		9.710449	0.497152	-1.329664	0.045786	0.001384	0.007421	-0.492782	0.466620	0.603484	0.418615
10510		9.710535	0.495759	-1.329558	0.030751	0.004709	0.010784	-0.492867	0.466571	0.603535	0.418496
10511		9.705033	0.484398	-1.376668	0.026728	0.005579	0.009903	-0.492952	0.466519	0.603570	0.418404
10512		9.654060	0.456335	-1.314624	0.023144	-0.000117	0.010732	-0.493004	0.466499	0.603617	0.418297
10513		9.736361	0.504988	-1.359900	0.035033	0.005365	0.010121	-0.493107	0.466428	0.603669	0.418180
10514		9.697875	0.560568	-1.366783	0.021681	0.008262	0.006253	-0.493172	0.466380	0.603702	0.418108
10515		9.738405	0.521411	-1.387434	0.011789	0.016910	0.004375	-0.493247	0.466324	0.603691	0.418099
10516		9.696574	0.541012	-1.335117	0.005613	0.011765	0.002742	-0.493279	0.466299	0.603689	0.418092
10517		9.668381	0.522466	-1.326847	0.004163	0.010437	0.000217	-0.493306	0.466264	0.603685	0.418104
10518		9.680476	0.465548	-1.340633	-0.007853	0.005013	0.003649	-0.493287	0.466289	0.603670	0.418120
10519		9.677713	0.460476	-1.364131	-0.009885	-0.001063	0.000072	-0.493247	0.466312	0.603666	0.418147
10520		9.678760	0.446907	-1.311483	-0.010846	-0.005641	0.007487	-0.493197	0.466378	0.603663	0.418138
10521		9.720779	0.426612	-1.362774	-0.018476	-0.002400	0.001377	-0.493135	0.466428	0.603642	0.418185
10522		9.704357	0.459606	-1.342315	-0.014538	0.009805	0.011354	-0.493132	0.466484	0.603583	0.418212
10523		9.692634	0.407234	-1.354400	-0.017869	0.004002	0.006541	-0.493102	0.466534	0.603536	0.418258
10524		9.695521	0.411838	-1.330147	-0.016295	0.005272	0.006243	-0.493070	0.466588	0.603497	0.418293
10525		9.680835	0.463198	-1.338857	-0.016728	0.002124	0.006480	-0.493037	0.466641	0.603456	0.418332
10526		9.683691	0.467913	-1.314792	-0.026341	0.002603	0.005017	-0.492971	0.466721	0.603405	0.418394
10527		9.704743	0.457820	-1.340136	-0.026928	-0.002147	0.003960	-0.492896	0.466801	0.603358	0.418461
10528		9.718445	0.419605	-1.383843	-0.029095	0.001543	0.001252	-0.492812	0.466878	0.603312	0.418539
10529		9.701988	0.453184	-1.363453	-0.026224	0.002538	0.002189	-0.492750	0.466940	0.603261	0.418618
10530		9.691196	0.388029	-1.323324	-0.021341	-0.001760	0.004537	-0.492681	0.467015	0.603232	0.418656
10531		9.691208	0.387809	-1.323300	-0.023914	0.000438	0.006182	-0.492626	0.467088	0.603181	0.418713
10532		9.691218	0.387450	-1.323333	-0.023050	-0.002985	0.007649	-0.492556	0.467180	0.603145	0.418746
10533		9.695746	0.410383	-1.328955	-0.027353	-0.003662	0.008295	-0.492485	0.467275	0.603093	0.418798
10534		9.737790	0.389870	-1.380155	-0.025907	-0.002341	0.010820	-0.492417	0.467381	0.603042	0.418833
10535		9.685586	0.484275	-1.343555	-0.027056	-0.000471	0.010877	-0.492363	0.467476	0.602977	0.418884
10536		9.660749	0.502508	-1.394483	-0.040577	0.000822	0.005702	-0.492260	0.467597	0.602899	0.418982
10537		9.639798	0.512414	-1.368496	-0.048606	0.004208	0.008049	-0.492164	0.467726	0.602784	0.419115
10538		9.706790	0.473786	-1.367948	-0.049050	0.001050	0.008273	-0.492048	0.467876	0.602681	0.419233
10539		9.714164	0.502324	-1.349304	-0.047531	-0.000977	-0.000259	-0.491919	0.467992	0.602597	0.419375
10540		9.705011	0.456207	-1.338740	-0.046828	-0.006007	-0.000097	-0.491768	0.468125	0.602536	0.419492
10541		9.678264	0.457286	-1.361293	-0.037256	-0.009771	-0.006862	-0.491624	0.468213	0.602511	0.419598
10542		9.696354	0.443520	-1.411121	-0.032496	-0.004305	-0.003620	-0.491504	0.468296	0.602484	0.419685
10543		9.711076	0.392467	-1.402065	-0.028319	0.006136	-0.003362	-0.491434	0.468342	0.602429	0.419795
10544		9.669060	0.412718	-1.350703	-0.024142	-0.002860	0.000734	-0.491348	0.468414	0.602406	0.419848
10545		9.706559	0.369647	-1.396389	-0.029142	0.003116	0.005325	-0.491287	0.468492	0.602339	0.419929
10546		9.703118	0.332258	-1.337983	-0.032436	0.000602	0.008721	-0.491208	0.468602	0.602271	0.419995
10547		9.704917	0.350291	-1.366805	-0.030987	0.001918	0.011250	-0.491154	0.468702	0.602192	0.420061
10548		9.695860	0.411074	-1.327905	-0.035738	-0.001920	0.012111	-0.491066	0.468835	0.602116	0.420123
10549		9.694810	0.424231	-1.380879	-0.044522	-0.004893	0.012083	-0.490958	0.468989	0.602020	0.420215
10550		9.694771	0.423736	-1.381300	-0.046267	-0.007776	0.011065	-0.490826	0.469158	0.601939	0.420298
10551		9.681784	0.385585	-1.447464	-0.040658	0.002348	0.009752	-0.490746	0.469278	0.601840	0.420399
10552		9.661857	0.381373	-1.368973	-0.038395	-0.003036	0.005500	-0.490636	0.469401	0.601776	0.420483
10553		9.716860	0.399233	-1.354166	-0.032913	-0.002590	0.008916	-0.490555	0.469511	0.601706	0.420553
10554		9.690306	0.398862	-1.375801	-0.031868	0.006930	0.013889	-0.490508	0.469623	0.601612	0.420618
10555		9.664796	0.384454	-1.344751	-0.031905	-0.004432	0.011663	-0.490430	0.469743	0.601543	0.420675
10556		9.669365	0.407169	-1.350203	-0.030325	-0.003157	0.011375	-0.490350	0.469863	0.601483	0.420719
10557		9.689313	0.410773	-1.428738	-0.018831	-0.002409	0.006937	-0.490299	0.469931	0.601448	0.420751
10558		9.720531	0.433521	-1.411993	-0.009914	0.000526	0.004150	-0.490263	0.469972	0.601438	0.420762
10559		9.725073	0.456994	-1.417419	-0.009099	-0.006160	-0.002636	-0.490205	0.469993	0.601457	0.420779
10560		9.677428	0.467317	-1.413823	-0.000711	0.005020	-0.000154	-0.490196	0.469988	0.601466	0.420783
10561		9.697750	0.425101	-1.357387	-0.003906	0.000830	-0.003707	-0.490170	0.469977	0.601481	0.420803
10562		9.698449	0.458171	-1.439078	-0.012544	-0.000552	-0.002442	-0.490111	0.470007	0.601484	0.420835
10563		9.693865	0.435041	-1.433851	-0.015407	0.000073	0.000726	-0.490065	0.470039	0.601466	0.420877
10564		9.680257	0.473161	-1.389563	-0.009658	0.000451	-0.001491	-0.490018	0.470062	0.601471	0.420900
10565		9.675643	0.450219	-1.384488	-0.012854	-0.003740	-0.005046	-0.489954	0.470081	0.601480	0.420941
10566		9.697638	0.426922	-1.357622	-0.014415	-0.003392	-0.000642	-0.489885	0.470126	0.601482	0.420968
10567		9.694772	0.422473	-1.381680	-0.014416	-0.003393	-0.000643	-0.489824	0.470165	0.601474	0.421006
10568		9.675537	0.451226	-1.384902	-0.014692	0.004775	-0.001013	-0.489779	0.470193	0.601456	0.421053
10569		9.690268	0.399707	-1.375818	-0.011675	0.005744	-0.002881	-0.489751	0.470196	0.601439	0.421107
10570		9.673878	0.433168	-1.355021	-0.004038	0.000864	-0.000888	-0.489719	0.470206	0.601453	0.421113
10571		9.718716	0.418372	-1.382314	-0.006901	0.001487	0.002280	-0.489702	0.470217	0.601448	0.421127
10572		9.689329	0.413777	-1.427762	0.000462	0.004777	0.003905	-0.489703	0.470223	0.601451	0.421116
10573		9.687624	0.394730	-1.398506	-0.005599	0.001210	0.003516	-0.489688	0.470238	0.601445	0.421124
10574		9.670209	0.441540	-1.430511	-0.005291	0.004395	0.006119	-0.489679	0.470265	0.601431	0.421125
10575		9.692364	0.417245	-1.402809	-0.002120	0.006957	0.005554	-0.489693	0.470268	0.601412	0.421132
10576		9.668622	0.421780	-1.400638	-0.007315	-0.000037	0.006617	-0.489667	0.470311	0.601403	0.421127
10577		9.692472	0.416254	-1.402352	-0.007032	0.001521	0.005099	-0.489652	0.470337	0.601388	0.421138
10578		9.718103	0.429665	-1.432894	0.001740	0.002873	0.001020	-0.489643	0.470334	0.601405	0.421126
10579		9.683524	0.477216	-1.362798	-0.008206	0.001763	0.001042	-0.489618	0.470350	0.601395	0.421152
10580		9.698219	0.425403	-1.353937	-0.002015	0.005295	-0.001387	-0.489603	0.470345	0.601403	0.421163
10581		9.700027	0.444286	-1.382609	-0.001303	0.000277	-0.001236	-0.489586	0.470338	0.601419	0.421169
10582		9.664226	0.398092	-1.394277	-0.005495	-0.000451	-0.003427	-0.489542	0.470347	0.601439	0.421182
10583		9.713629	0.406985	-1.426789	0.000283	0.001558	-0.001518	-0.489531	0.470333	0.601455	0.421187
10584		9.690868	0.398071	-1.372064	-0.001149	0.001869	0.000065	-0.489511	0.470337	0.601470	0.421185
10585		9.685275	0.388917	-1.419447	-0.009380	0.002005	-0.003015	-0.489475	0.470342	0.601467	0.421224
10586		9.707360	0.365142	-1.391994	-0.003861	0.004081	0.004534	-0.489465	0.470362	0.601461	0.421223
10587		9.655217	0.351794	-1.382740	-0.003318	0.005572	-0.002624	-0.489456	0.470345	0.601462	0.421251
10588		9.719464	0.416783	-1.377524	0.002023	0.004431	-0.000498	-0.489450	0.470334	0.601479	0.421246
10589		9.699285	0.459347	-1.433053	-0.001862	0.006886	-0.000086	-0.489454	0.470318	0.601474	0.421265
10590		9.669175	0.422407	-1.396631	-0.002169	0.003703	-0.002690	-0.489432	0.470313	0.601489	0.421277
10591		9.664642	0.399414	-1.391011	0.008191	0.006338	-0.007048	-0.489443	0.470252	0.601523	0.421282
10592		9.694100	0.404152	-1.344793	0.007624	0.003222	-0.004012	-0.489439	0.470219	0.601563	0.421267
10593		9.702158	0.357415	-1.436411	0.018979	0.002396	-0.009737	-0.489456	0.470135	0.601633	0.421240
10594		9.660137	0.377582	-1.384899	0.019413	0.005543	-0.009956	-0.489474	0.470050	0.601706	0.421210
10595		9.715151	0.396282	-1.369624	0.024445	0.001217	-0.010434	-0.489498	0.469954	0.601792	0.421166
10596		9.691292	0.401934	-1.367937	0.022574	-0.001624	-0.008635	-0.489505	0.469879	0.601886	0.421107
10597		9.708494	0.401872	-1.470052	0.026046	0.004119	-0.006600	-0.489553	0.469780	0.601964	0.421052
10598		9.694871	0.440096	-1.425483	0.026325	0.005672	-0.008122	-0.489592	0.469683	0.602046	0.420997
10599		9.630798	0.483844	-1.401153	0.014799	0.003282	-0.007816	-0.489607	0.469611	0.602103	0.420978
10600		9.706861	0.492412	-1.411372	0.013389	0.005223	-0.002112	-0.489626	0.469566	0.602146	0.420945
10601		9.702326	0.469489	-1.405802	-0.000479	0.003312	-0.009918	-0.489601	0.469526	0.602174	0.420978
10602		9.688638	0.400488	-1.389820	-0.008422	0.005002	-0.014519	-0.489544	0.469497	0.602199	0.421041
10603		9.688658	0.401877	-1.389275	-0.004235	0.005730	-0.012329	-0.489513	0.469453	0.602220	0.421095
10604		9.701550	0.440979	-1.322753	-0.010313	0.000533	-0.016839	-0.489433	0.469431	0.602258	0.421160
10605		9.657457	0.382131	-1.405420	-0.005282	0.005927	-0.019210	-0.489386	0.469369	0.602292	0.421235
10606		9.675714	0.369657	-1.454308	-0.002702	0.003745	-0.020859	-0.489325	0.469309	0.602347	0.421294
10607		9.727183	0.352163	-1.380660	0.012009	0.010329	-0.017611	-0.489331	0.469206	0.602398	0.421329
10608		9.679523	0.363775	-1.376732	0.016026	-0.001885	-0.018948	-0.489300	0.469117	0.602502	0.421314
10609		9.697770	0.350454	-1.426015	0.022122	0.004944	-0.010318	-0.489333	0.469015	0.602577	0.421282
10610		9.726145	0.369683	-1.432707	0.019082	0.002342	-0.012574	-0.489336	0.468929	0.602663	0.421252
10611		9.684025	0.389716	-1.381477	0.024162	0.001284	-0.004804	-0.489376	0.468843	0.602741	0.421189
10612		9.724218	0.459986	-1.375002	0.014506	0.001724	-0.006301	-0.489379	0.468789	0.602805	0.421155
10613		9.690343	0.432565	-1.415257	0.008167	0.006319	-0.007067	-0.489386	0.468735	0.602834	0.421165
10614		9.683112	0.405173	-1.433154	0.005840	0.008419	-0.011064	-0.489379	0.468675	0.602873	0.421185
10615		9.695981	0.443830	-1.366420	0.003827	0.003991	-0.010558	-0.489365	0.468620	0.602911	0.421207
10616		9.693235	0.440120	-1.389737	0.008420	0.006236	-0.012713	-0.489355	0.468552	0.602965	0.421218
10617		9.693260	0.441025	-1.389277	0.010745	0.004135	-0.008716	-0.489362	0.468485	0.603014	0.421214
10618		9.667689	0.427917	-1.358191	0.013350	0.003588	-0.006241	-0.489368	0.468430	0.603070	0.421188
10619		9.666702	0.442158	-1.410761	0.013070	0.002035	-0.004719	-0.489382	0.468375	0.603119	0.421163
10620		9.690564	0.437585	-1.412203	0.010894	0.005727	-0.007418	-0.489386	0.468318	0.603167	0.421152
10621		9.721760	0.461226	-1.394646	0.010042	0.010782	-0.004757	-0.489417	0.468255	0.603186	0.421158
10622		9.702533	0.490009	-1.397348	0.016507	0.006144	-0.006814	-0.489437	0.468186	0.603244	0.421130
10623		9.680480	0.514194	-1.424262	0.011892	0.002261	-0.008781	-0.489439	0.468123	0.603297	0.421122
10624		9.659337	0.524830	-1.398817	0.007127	-0.003216	-0.012048	-0.489397	0.468080	0.603370	0.421113
10625		9.684879	0.539221	-1.429658	0.016075	0.002994	-0.006593	-0.489415	0.468013	0.603425	0.421088
10626		9.680372	0.516492	-1.424164	-0.000491	0.003287	-0.009932	-0.489380	0.467982	0.603461	0.421112
10627		9.724589	0.470401	-1.368847	-0.013170	0.012475	-0.011469	-0.489350	0.467950	0.603443	0.421208
10628		9.689092	0.425113	-1.379296	-0.007857	0.009703	-0.013463	-0.489311	0.467913	0.603455	0.421277
10629		9.690924	0.445025	-1.407398	-0.002521	0.008571	-0.011334	-0.489293	0.467866	0.603468	0.421333
10630		9.665376	0.432411	-1.375967	-0.001646	0.005153	-0.009872	-0.489261	0.467834	0.603496	0.421364
10631		9.663634	0.414673	-1.346561	0.000809	0.003014	-0.008695	-0.489242	0.467794	0.603527	0.421387
10632		9.682035	0.400712	-1.395441	0.008025	0.006354	-0.004251	-0.489248	0.467752	0.603560	0.421379
10633		9.688330	0.443263	-1.429245	0.013467	0.003540	-0.009068	-0.489260	0.467677	0.603618	0.421365
10634		9.689368	0.429846	-1.375891	0.016796	0.009333	-0.004218	-0.489296	0.467608	0.603662	0.421336
10635		9.698454	0.476999	-1.385542	0.005567	0.008489	-0.005431	-0.489307	0.467560	0.603678	0.421353
10636		9.684632	0.515405	-1.340841	0.012184	0.005448	-0.006185	-0.489316	0.467505	0.603727	0.421335
10637		9.686414	0.534456	-1.369547	0.011758	0.002301	-0.005960	-0.489323	0.467452	0.603773	0.421320
10638		9.688181	0.553425	-1.398390	0.010327	0.002617	-0.004375	-0.489322	0.467412	0.603821	0.421296
10639		9.690917	0.558714	-1.374348	-0.000622	0.003325	-0.007113	-0.489306	0.467377	0.603845	0.421318
10640		9.685497	0.549753	-1.421437	-0.005937	0.006094	-0.005121	-0.489277	0.467369	0.603852	0.421353
10641		9.679262	0.508622	-1.386752	-0.008989	0.001848	-0.011497	-0.489226	0.467346	0.603871	0.421409
10642		9.686438	0.537938	-1.368014	-0.006385	0.001306	-0.009019	-0.489173	0.467336	0.603897	0.421444
10643		9.676538	0.505630	-1.409890	0.001252	0.007795	-0.004801	-0.489176	0.467299	0.603906	0.421468
10644		9.679332	0.510870	-1.385439	-0.004637	0.005822	-0.003883	-0.489152	0.467292	0.603913	0.421495
10645		9.696025	0.478210	-1.405207	-0.004786	0.004226	-0.005183	-0.489126	0.467279	0.603916	0.421534
10646		9.700549	0.502067	-1.409982	-0.000603	0.004965	-0.002990	-0.489111	0.467266	0.603931	0.421544
10647		9.691632	0.455654	-1.399093	-0.002054	0.003639	-0.005529	-0.489093	0.467242	0.603947	0.421569
10648		9.701647	0.489121	-1.355844	-0.002064	0.014986	-0.003323	-0.489104	0.467210	0.603936	0.421608
10649		9.654063	0.499534	-1.351434	-0.006089	0.004495	-0.006424	-0.489078	0.467192	0.603942	0.421650
10650		9.684180	0.537074	-1.387035	0.001854	0.002829	-0.001811	-0.489064	0.467181	0.603965	0.421645
10651		9.707131	0.546199	-1.441146	-0.003336	0.005550	-0.002646	-0.489054	0.467166	0.603965	0.421673
10652		9.681589	0.532954	-1.409752	-0.011408	0.007260	-0.004435	-0.489017	0.467171	0.603955	0.421725
10653		9.717651	0.472008	-1.426160	-0.011100	-0.000895	-0.004043	-0.488966	0.467184	0.603958	0.421764
10654		9.723068	0.482213	-1.378336	-0.008824	0.005078	-0.006080	-0.488926	0.467181	0.603963	0.421808
10655		9.690356	0.440886	-1.365395	-0.009684	0.010133	-0.003422	-0.488913	0.467171	0.603940	0.421867
10656		9.672010	0.456045	-1.315181	-0.014017	0.007796	-0.006917	-0.488867	0.467173	0.603929	0.421934
10657		9.688808	0.423433	-1.334407	-0.002346	0.013432	-0.001797	-0.488884	0.467144	0.603908	0.421976
10658		9.666830	0.447191	-1.360943	0.004587	0.002245	-0.002154	-0.488874	0.467126	0.603940	0.421962
10659		9.713645	0.451136	-1.416917	0.007340	0.003301	0.001626	-0.488894	0.467097	0.603963	0.421938
10660		9.675844	0.493795	-1.370960	0.009926	0.001121	-0.000018	-0.488897	0.467075	0.604003	0.421901
10661		9.703236	0.526072	-1.430782	0.003889	-0.002449	-0.000404	-0.488884	0.467067	0.604033	0.421883
10662		9.686580	0.559156	-1.410346	0.002147	0.006019	0.000788	-0.488885	0.467056	0.604043	0.421878
10663		9.686661	0.559257	-1.409746	-0.006072	0.006132	-0.002303	-0.488872	0.467048	0.604036	0.421914
10664		9.694482	0.479570	-1.418930	-0.008806	0.006716	-0.001959	-0.488844	0.467055	0.604027	0.421951
10665		9.697256	0.485013	-1.394342	-0.011010	0.008758	-0.008791	-0.488816	0.467031	0.604019	0.422022
10666		9.695588	0.467104	-1.364282	-0.010845	0.011992	-0.003368	-0.488797	0.467028	0.603996	0.422080
10667		9.700184	0.491069	-1.368411	-0.012571	0.009116	-0.004384	-0.488773	0.467024	0.603971	0.422148
10668		9.671928	0.473218	-1.360812	-0.017452	0.003680	-0.004831	-0.488710	0.467049	0.603958	0.422211
10669		9.685965	0.436021	-1.404540	-0.004938	0.002626	-0.006489	-0.488681	0.467031	0.603972	0.422245
10670		9.709838	0.431729	-1.405898	0.002256	0.004333	-0.006159	-0.488663	0.467002	0.604003	0.422253
10671		9.725946	0.507083	-1.397407	-0.001157	0.001863	0.000059	-0.488653	0.466999	0.604010	0.422259
10672		9.686063	0.437097	-1.403531	-0.003342	0.005545	-0.002648	-0.488633	0.466992	0.604018	0.422278
10673		9.662264	0.442248	-1.401391	-0.000882	0.003412	-0.001466	-0.488625	0.466979	0.604026	0.422290
10674		9.665007	0.446903	-1.377176	0.004751	0.005480	0.003273	-0.488636	0.466971	0.604037	0.422270
10675		9.659722	0.436904	-1.424446	0.001321	0.001371	0.005366	-0.488641	0.466977	0.604040	0.422253
10676		9.719099	0.478437	-1.414099	-0.003471	0.005590	0.000176	-0.488627	0.466979	0.604041	0.422266
10677		9.699810	0.506761	-1.416967	-0.003325	0.007184	0.001476	-0.488631	0.466974	0.604028	0.422286
10678		9.655758	0.507523	-1.336257	-0.005931	0.007721	-0.001007	-0.488615	0.466974	0.604021	0.422314
10679		9.683303	0.540177	-1.395157	-0.011547	0.007293	-0.001622	-0.488593	0.466980	0.603996	0.422368
10680		9.674450	0.493764	-1.384008	-0.011419	0.007247	-0.004448	-0.488557	0.466985	0.603986	0.422420
10681		9.653351	0.503969	-1.357725	-0.008539	0.008257	-0.003491	-0.488543	0.466972	0.603973	0.422468
10682		9.700270	0.508209	-1.413290	-0.001012	0.003456	0.001358	-0.488531	0.466976	0.603981	0.422466
10683		9.694005	0.466382	-1.378974	-0.016720	-0.001332	-0.004675	-0.488465	0.467003	0.603975	0.422522
10684		9.712505	0.452363	-1.428290	-0.005617	-0.000430	-0.000617	-0.488426	0.467020	0.603988	0.422530
10685		9.695798	0.485690	-1.407811	-0.002186	0.003680	-0.002708	-0.488413	0.467007	0.603995	0.422549
10686		9.677317	0.500274	-1.358158	-0.002316	0.003725	0.000117	-0.488396	0.467010	0.604003	0.422554
10687		9.680959	0.537932	-1.415771	-0.006371	0.002937	-0.004909	-0.488368	0.466999	0.604010	0.422588
10688		9.673860	0.510177	-1.434035	-0.009236	0.003563	-0.001742	-0.488331	0.467013	0.604008	0.422618
10689		9.672101	0.491999	-1.404562	-0.011569	0.005649	-0.005751	-0.488299	0.467004	0.604001	0.422674
10690		9.719855	0.483024	-1.407329	-0.011441	0.005604	-0.008577	-0.488249	0.467000	0.604005	0.422732
10691		9.670412	0.474815	-1.374252	-0.009977	0.008565	-0.001909	-0.488234	0.466998	0.603982	0.422784
10692		9.694341	0.470280	-1.375286	-0.010543	0.003829	-0.002987	-0.488192	0.467012	0.603979	0.422822
10693		9.663387	0.447370	-1.391989	-0.009659	0.000417	-0.001521	-0.488155	0.467026	0.603976	0.422853
10694		9.691689	0.466173	-1.398853	-0.001449	-0.001325	-0.002543	-0.488119	0.467029	0.604005	0.422850
10695		9.689039	0.461786	-1.422517	-0.003492	0.003948	-0.003951	-0.488097	0.467019	0.604008	0.422881
10696		9.667878	0.471795	-1.396627	0.002127	0.004380	-0.003331	-0.488085	0.467000	0.604031	0.422883
10697		9.698858	0.495275	-1.379514	0.004170	-0.000892	-0.001924	-0.488072	0.466986	0.604060	0.422874
10698		9.696201	0.490951	-1.403207	-0.000626	0.003323	-0.007117	-0.488042	0.466964	0.604088	0.422891
10699		9.691763	0.467794	-1.397805	0.000145	0.001593	0.001301	-0.488033	0.466966	0.604093	0.422892
10700		9.693621	0.486377	-1.426465	0.000564	0.004736	0.001077	-0.488027	0.466963	0.604102	0.422889
10701		9.696351	0.491006	-1.402148	0.002142	0.006017	0.000795	-0.488040	0.466943	0.604107	0.422890
10702		9.703571	0.518949	-1.382817	0.005167	0.008622	0.003056	-0.488062	0.466926	0.604112	0.422876
10703		9.685146	0.533043	-1.332653	0.005441	0.010171	0.001531	-0.488094	0.466895	0.604109	0.422878
10704		9.689741	0.556259	-1.336942	-0.000452	0.008189	0.002435	-0.488100	0.466891	0.604105	0.422882
10705		9.681891	0.541995	-1.407821	0.001852	0.002830	-0.001807	-0.488097	0.466869	0.604123	0.422883
10706		9.653604	0.523753	-1.400656	-0.003492	0.003946	-0.003952	-0.488070	0.466862	0.604137	0.422902
10707		9.703168	0.532997	-1.432634	-0.003766	0.002397	-0.002428	-0.488049	0.466857	0.604143	0.422923
10708		9.696906	0.491212	-1.398237	-0.005070	0.002665	-0.003671	-0.488014	0.466857	0.604156	0.422944
10709		9.702200	0.501185	-1.350330	-0.006374	0.002933	-0.004914	-0.487982	0.466853	0.604159	0.422982
10710		9.678375	0.506521	-1.348262	-0.000611	0.004959	-0.002992	-0.487966	0.466840	0.604175	0.422992
10711		9.699651	0.497107	-1.373266	0.000692	0.004690	-0.001749	-0.487963	0.466823	0.604181	0.423005
10712		9.670573	0.492482	-1.418877	0.010077	0.002726	0.001301	-0.487974	0.466802	0.604215	0.422968
10713		9.696311	0.506223	-1.449151	0.005006	0.005391	-0.002371	-0.487984	0.466766	0.604234	0.422967
10714		9.696424	0.506123	-1.448427	-0.000310	0.009780	0.003734	-0.487998	0.466763	0.604223	0.422971
10715		9.671653	0.478342	-1.364256	0.000966	0.006238	-0.003275	-0.487998	0.466736	0.604232	0.422989
10716		9.680621	0.525311	-1.374216	0.007195	0.001713	0.000340	-0.487997	0.466720	0.604265	0.422960
10717		9.685926	0.534676	-1.326316	0.000561	0.004734	0.001075	-0.488003	0.466707	0.604269	0.422962
10718		9.723190	0.505705	-1.424500	0.003024	0.002605	0.002261	-0.488000	0.466705	0.604286	0.422943
10719		9.696797	0.505620	-1.446108	0.003859	0.008887	0.001811	-0.488024	0.466683	0.604281	0.422947
10720		9.695076	0.486824	-1.416392	0.005149	0.006982	-0.001071	-0.488031	0.466657	0.604300	0.422940
10721		9.723510	0.505328	-1.422445	0.002555	0.009154	0.000567	-0.488054	0.466630	0.604297	0.422948
10722		9.690839	0.463531	-1.409628	0.005553	0.008484	-0.005423	-0.488058	0.466587	0.604323	0.422954
10723		9.658171	0.515886	-1.315455	0.015221	0.009704	0.000229	-0.488108	0.466529	0.604344	0.422929
10724		9.667191	0.562388	-1.325259	0.009942	0.002768	0.004126	-0.488125	0.466516	0.604372	0.422885
10725		9.680658	0.537936	-1.421809	0.008781	0.004628	0.004182	-0.488154	0.466496	0.604384	0.422856
10726		9.680717	0.537469	-1.421587	-0.001565	0.000358	0.004407	-0.488137	0.466517	0.604392	0.422841
10727		9.690395	0.570274	-1.379346	-0.007610	-0.004851	-0.000114	-0.488092	0.466540	0.604406	0.422848
10728		9.739945	0.579490	-1.411586	-0.011844	0.004094	-0.004240	-0.488045	0.466552	0.604402	0.422893
10729		9.704640	0.533445	-1.422464	-0.018948	0.013662	-0.005202	-0.488018	0.466554	0.604354	0.422993
10730		9.655218	0.525324	-1.388897	-0.010739	0.011919	-0.006219	-0.487993	0.466542	0.604338	0.423058
10731		9.697827	0.506702	-1.438802	-0.011431	0.007231	-0.004468	-0.487965	0.466539	0.604320	0.423117
10732		9.636839	0.446444	-1.419139	-0.005661	0.010891	0.001581	-0.487966	0.466540	0.604300	0.423145
10733		9.713795	0.441075	-1.375330	-0.007096	0.011202	0.003162	-0.487979	0.466538	0.604268	0.423178
10734		9.690848	0.431736	-1.319758	-0.011270	0.012092	0.005080	-0.487977	0.466561	0.604225	0.423217
10735		9.671597	0.459656	-1.322376	-0.010800	0.005544	0.006774	-0.487966	0.466598	0.604185	0.423245
10736		9.669072	0.454261	-1.345875	-0.007451	0.000009	0.009431	-0.487945	0.466650	0.604170	0.423233
10737		9.692230	0.462585	-1.400346	-0.004855	-0.002162	0.007793	-0.487929	0.466688	0.604162	0.423221
10738		9.692257	0.462041	-1.400337	0.004325	0.002335	0.003507	-0.487930	0.466688	0.604179	0.423195
10739		9.705738	0.531761	-1.415583	0.005495	0.002110	0.007576	-0.487948	0.466695	0.604181	0.423164
10740		9.696932	0.484164	-1.404550	0.004280	0.013655	0.005712	-0.487989	0.466678	0.604165	0.423158
10741		9.656439	0.521737	-1.381740	-0.000877	0.005042	0.002655	-0.487994	0.466675	0.604161	0.423162
10742		9.747489	0.478324	-1.382552	0.002002	0.006053	0.003618	-0.488002	0.466673	0.604164	0.423151
10743		9.672750	0.501879	-1.453458	0.002560	0.010782	0.004692	-0.488039	0.466653	0.604150	0.423151
10744		9.678114	0.510716	-1.404839	0.005164	0.010245	0.007180	-0.488073	0.466646	0.604141	0.423130
10745		9.702163	0.504962	-1.405448	0.008042	0.011255	0.008143	-0.488132	0.466622	0.604129	0.423106
10746		9.731381	0.508607	-1.358470	0.002149	0.009276	0.009040	-0.488160	0.466630	0.604113	0.423088
10747		9.683846	0.517480	-1.354316	0.005027	0.010285	0.010003	-0.488214	0.466619	0.604095	0.423064
10748		9.669818	0.554204	-1.309444	-0.005457	0.006061	0.013042	-0.488224	0.466664	0.604061	0.423051
10749		9.691206	0.543473	-1.334478	-0.011632	0.000902	0.011341	-0.488212	0.466720	0.604025	0.423054
10750		9.679029	0.504758	-1.400686	-0.006292	-0.000218	0.013493	-0.488201	0.466782	0.604004	0.423029
10751		9.683564	0.527244	-1.405939	-0.009178	-0.002860	0.008405	-0.488175	0.466833	0.603989	0.423025
10752		9.685548	0.545221	-1.434721	-0.003887	0.005704	0.008637	-0.488178	0.466861	0.603969	0.423018
10753		9.655427	0.507179	-1.398230	-0.014701	0.009614	0.011277	-0.488177	0.466919	0.603896	0.423060
10754		9.708449	0.505838	-1.353114	-0.015538	0.003337	0.011726	-0.488152	0.466991	0.603851	0.423074
10755		9.672448	0.472272	-1.417371	-0.025335	0.003796	0.013009	-0.488121	0.467078	0.603776	0.423120
10756		9.691896	0.442984	-1.413402	-0.022599	0.003213	0.012672	-0.488082	0.467170	0.603714	0.423153
10757		9.699105	0.470010	-1.394317	-0.014379	0.003099	0.015790	-0.488078	0.467244	0.603655	0.423160
10758		9.710841	0.520118	-1.380479	-0.017676	0.000578	0.019170	-0.488055	0.467349	0.603595	0.423156
10759		9.708410	0.513824	-1.403835	-0.023901	0.006731	0.019667	-0.488051	0.467445	0.603502	0.423185
10760		9.704077	0.488813	-1.397919	-0.026646	0.007306	0.019997	-0.488030	0.467562	0.603404	0.423222
10761		9.654653	0.478224	-1.364786	-0.020748	0.010905	0.023226	-0.488048	0.467661	0.603293	0.423249
10762		9.685254	0.513626	-1.399322	-0.015133	0.009705	0.019734	-0.488060	0.467743	0.603214	0.423257
10763		9.700251	0.460214	-1.389602	-0.018899	0.012103	0.017297	-0.488078	0.467811	0.603123	0.423292
10764		9.716707	0.533847	-1.379941	-0.017882	0.008654	0.015940	-0.488073	0.467890	0.603049	0.423315
10765		9.674249	0.457952	-1.409764	-0.021928	0.009502	0.015025	-0.488065	0.467972	0.602957	0.423365
10766		9.653126	0.466503	-1.383661	-0.025654	0.002217	0.014498	-0.488020	0.468079	0.602886	0.423400
10767		9.681641	0.483775	-1.389995	-0.025798	0.002247	0.017317	-0.487989	0.468188	0.602802	0.423435
10768		9.652723	0.478434	-1.435901	-0.041658	-0.002487	0.014047	-0.487891	0.468343	0.602709	0.423508
10769		9.698514	0.448271	-1.409986	-0.033016	0.003764	0.025192	-0.487862	0.468493	0.602585	0.423551
10770		9.699230	0.432369	-1.356816	-0.041395	0.002287	0.020757	-0.487793	0.468658	0.602466	0.423618
10771		9.673511	0.416888	-1.325930	-0.035917	0.002739	0.024210	-0.487757	0.468809	0.602345	0.423664
10772		9.723353	0.423565	-1.357600	-0.029136	0.002917	0.028910	-0.487735	0.468967	0.602232	0.423675
10773		9.682505	0.473501	-1.387516	-0.031043	0.009762	0.028799	-0.487745	0.469099	0.602098	0.423708
10774		9.706598	0.466252	-1.388092	-0.032493	0.008444	0.026246	-0.487727	0.469246	0.601970	0.423748
10775		9.702265	0.440582	-1.381883	-0.026306	0.013585	0.027967	-0.487754	0.469363	0.601834	0.423781
10776		9.685866	0.471541	-1.360372	-0.021383	0.006093	0.022098	-0.487745	0.469474	0.601745	0.423793
10777		9.662160	0.475058	-1.358389	-0.027581	-0.000668	0.016245	-0.487704	0.469584	0.601671	0.423825
10778		9.660188	0.454707	-1.329489	-0.027873	-0.000620	0.021879	-0.487659	0.469725	0.601585	0.423842
10779		9.674345	0.415707	-1.373524	-0.026881	0.004016	0.014505	-0.487630	0.469818	0.601505	0.423886
10780		9.702915	0.433065	-1.379697	-0.025724	0.002155	0.014446	-0.487583	0.469926	0.601434	0.423921
10781		9.674517	0.413547	-1.372969	-0.024853	-0.001262	0.015902	-0.487542	0.470035	0.601364	0.423948
10782		9.714895	0.482315	-1.365597	-0.027459	-0.000714	0.013409	-0.487480	0.470149	0.601299	0.423985
10783		9.709799	0.472262	-1.413254	-0.026162	-0.000995	0.014651	-0.487429	0.470263	0.601223	0.424024
10784		9.647791	0.425682	-1.447419	-0.026184	0.007088	0.008643	-0.487384	0.470344	0.601152	0.424087
10785		9.698149	0.419537	-1.426105	-0.023725	0.004951	0.009829	-0.487354	0.470415	0.601085	0.424137
10786		9.698782	0.404771	-1.372612	-0.019834	0.010603	0.003439	-0.487324	0.470457	0.601031	0.424201
10787		9.708728	0.437098	-1.328814	-0.005951	0.009304	0.003106	-0.487334	0.470457	0.601006	0.424226
10788		9.708840	0.436865	-1.328070	-0.003629	0.005591	0.002990	-0.487325	0.470468	0.601000	0.424232
10789		9.667993	0.489224	-1.358146	-0.005358	0.002730	0.001956	-0.487315	0.470474	0.600997	0.424242
10790		9.667552	0.503553	-1.410556	-0.006946	0.001449	0.002226	-0.487285	0.470500	0.600995	0.424250
10791		9.686755	0.474844	-1.407080	-0.005644	0.001172	0.003471	-0.487274	0.470512	0.600994	0.424250
10792		9.688863	0.493675	-1.435782	-0.007087	-0.000131	0.000922	-0.487236	0.470537	0.600999	0.424259
10793		9.668096	0.489150	-1.357443	-0.017506	0.003684	-0.004923	-0.487179	0.470560	0.600976	0.424331
10794		9.687286	0.461196	-1.353793	-0.009404	0.001980	-0.003085	-0.487134	0.470575	0.600981	0.424361
10795		9.686894	0.475982	-1.405740	-0.008271	0.011413	-0.000901	-0.487138	0.470561	0.600957	0.424406
10796		9.701551	0.424339	-1.396433	-0.009714	0.010109	-0.003451	-0.487115	0.470558	0.600941	0.424457
10797		9.670610	0.401917	-1.412916	-0.003053	0.007104	-0.004160	-0.487109	0.470535	0.600943	0.424488
10798		9.659164	0.444475	-1.344118	-0.007671	0.003239	-0.006174	-0.487065	0.470533	0.600955	0.424523
10799		9.708934	0.454092	-1.375729	-0.008974	0.003515	-0.007420	-0.487029	0.470517	0.600964	0.424568
10800		9.687238	0.478841	-1.402396	-0.005944	0.006098	-0.005139	-0.487000	0.470508	0.600970	0.424602
10801		9.673283	0.409228	-1.387442	-0.006789	-0.001776	-0.008840	-0.486952	0.470493	0.601001	0.424632
10802		9.692425	0.381667	-1.384134	-0.006364	0.001361	-0.009051	-0.486899	0.470484	0.601027	0.424666
10803		9.711609	0.353774	-1.380664	-0.001016	0.001834	-0.002761	-0.486884	0.470470	0.601044	0.424674
10804		9.711189	0.368702	-1.432901	0.001143	0.006233	-0.006058	-0.486870	0.470440	0.601067	0.424690
10805		9.675896	0.416140	-1.362429	0.015174	0.006524	-0.005076	-0.486902	0.470371	0.601112	0.424667
10806		9.668730	0.388532	-1.381077	0.017359	0.001234	-0.006496	-0.486910	0.470311	0.601183	0.424625
10807		9.687473	0.374891	-1.430226	0.020532	0.003796	-0.007033	-0.486940	0.470230	0.601249	0.424586
10808		9.742368	0.393206	-1.414076	0.025152	0.006058	-0.009144	-0.486975	0.470132	0.601331	0.424538
10809		9.695222	0.389329	-1.357639	0.008366	0.007942	-0.005678	-0.486998	0.470070	0.601362	0.424536
10810		9.724210	0.393856	-1.310871	0.016760	0.006197	-0.009474	-0.487013	0.469992	0.601427	0.424514
10811		9.647645	0.400665	-1.353445	0.016335	0.003059	-0.009262	-0.487027	0.469915	0.601490	0.424492
10812		9.656887	0.448236	-1.363304	0.028492	-0.001095	-0.010622	-0.487045	0.469820	0.601601	0.424421
10813		9.718662	0.401130	-1.410793	0.031938	0.004622	-0.008559	-0.487098	0.469710	0.601688	0.424358
10814		9.697418	0.410948	-1.384918	0.034958	0.007202	-0.006284	-0.487165	0.469595	0.601782	0.424276
10815		9.680835	0.444040	-1.363811	0.035091	0.008776	-0.004986	-0.487252	0.469469	0.601865	0.424195
10816		9.678323	0.439750	-1.387416	0.027029	-0.000815	-0.009059	-0.487271	0.469381	0.601968	0.424125
10817		9.702556	0.420939	-1.336475	0.030056	0.000160	-0.010906	-0.487307	0.469269	0.602075	0.424057
10818		9.675739	0.436275	-1.411271	0.033497	0.005876	-0.008849	-0.487361	0.469153	0.602174	0.423982
10819		9.704251	0.454998	-1.417377	0.050529	0.007126	-0.009730	-0.487472	0.468974	0.602309	0.423862
10820		9.692241	0.511806	-1.401449	0.046471	0.007966	-0.010658	-0.487559	0.468815	0.602435	0.423758
10821		9.688095	0.474481	-1.343377	0.034638	0.003998	-0.008919	-0.487620	0.468693	0.602535	0.423682
10822		9.692682	0.498239	-1.348486	0.035090	-0.002552	-0.007238	-0.487655	0.468594	0.602655	0.423579
10823		9.666267	0.498753	-1.371076	0.038105	0.000029	-0.004970	-0.487721	0.468482	0.602764	0.423471
10824		9.708844	0.479694	-1.422135	0.032479	-0.002016	-0.009739	-0.487747	0.468381	0.602883	0.423384
10825		9.730562	0.456285	-1.394935	0.033032	0.002696	-0.008664	-0.487803	0.468262	0.602985	0.423306
10826		9.704263	0.457081	-1.416623	0.031543	0.012673	-0.009005	-0.487873	0.468136	0.603064	0.423253
10827		9.668433	0.519056	-1.398846	0.035443	0.010230	-0.009390	-0.487956	0.467993	0.603154	0.423186
10828		9.663887	0.496162	-1.393179	0.026515	0.005664	-0.010784	-0.487989	0.467888	0.603243	0.423137
10829		9.690673	0.482273	-1.317997	0.028552	0.000397	-0.009370	-0.488021	0.467789	0.603339	0.423074
10830		9.716135	0.510530	-1.401271	0.028404	0.000427	-0.006552	-0.488052	0.467703	0.603435	0.422996
10831		9.683086	0.468928	-1.389520	0.021755	0.003442	-0.005846	-0.488091	0.467616	0.603507	0.422944
10832		9.680615	0.464386	-1.413000	0.024768	0.006027	-0.003580	-0.488137	0.467536	0.603575	0.422883
10833		9.711626	0.487547	-1.395399	0.024628	0.004440	-0.004880	-0.488180	0.467455	0.603639	0.422831
10834		9.683269	0.469278	-1.388129	0.022720	0.011284	-0.005005	-0.488233	0.467365	0.603694	0.422791
10835		9.652398	0.446313	-1.404717	0.027363	0.003852	-0.005212	-0.488288	0.467266	0.603774	0.422723
10836		9.681303	0.450826	-1.358256	0.033258	0.005816	-0.006100	-0.488346	0.467159	0.603866	0.422642
10837		9.683438	0.469610	-1.386832	0.037290	0.004955	-0.005187	-0.488423	0.467039	0.603960	0.422551
10838		9.713996	0.506643	-1.422244	0.035425	0.002127	-0.003388	-0.488481	0.466942	0.604060	0.422448
10839		9.659645	0.474509	-1.384982	0.031663	0.004525	-0.005833	-0.488540	0.466838	0.604143	0.422377
10840		9.690211	0.511528	-1.420351	0.035550	0.003702	-0.002100	-0.488606	0.466741	0.604237	0.422274
10841		9.657227	0.469605	-1.408267	0.033231	0.005788	-0.006121	-0.488673	0.466628	0.604321	0.422200
10842		9.683975	0.455670	-1.333186	0.029383	-0.003068	-0.007924	-0.488692	0.466542	0.604431	0.422115
10843		9.714476	0.492725	-1.369007	0.028202	0.002040	0.000355	-0.488751	0.466467	0.604502	0.422029
10844		9.659683	0.474259	-1.384800	0.026350	-0.002409	-0.001956	-0.488777	0.466405	0.604591	0.421940
10845		9.737868	0.501204	-1.423737	0.019576	-0.000968	-0.002543	-0.488800	0.466349	0.604656	0.421881
10846		9.735410	0.496497	-1.447235	0.016789	0.009282	-0.004157	-0.488835	0.466281	0.604701	0.421852
10847		9.659349	0.488515	-1.436931	0.019397	0.005479	-0.009898	-0.488863	0.466190	0.604766	0.421827
10848		9.692847	0.517119	-1.395294	0.017209	0.010781	-0.008509	-0.488894	0.466104	0.604817	0.421812
10849		9.681663	0.452309	-1.355193	0.016656	0.006061	-0.009571	-0.488917	0.466021	0.604874	0.421797
10850		9.657857	0.457458	-1.353332	0.015663	0.003101	0.001948	-0.488943	0.465987	0.604917	0.421742
10851		9.705559	0.447317	-1.356355	0.012384	-0.002662	-0.002897	-0.488946	0.465948	0.604974	0.421699
10852		9.678800	0.461251	-1.431605	0.015526	0.001512	0.000653	-0.488964	0.465914	0.605024	0.421645
10853		9.702679	0.455966	-1.432995	0.019836	0.002196	0.000039	-0.489003	0.465858	0.605077	0.421585
10854		9.707317	0.479163	-1.437888	0.023263	0.006280	-0.002056	-0.489049	0.465786	0.605138	0.421525
10855		9.693129	0.516999	-1.393374	0.024971	0.009136	-0.001048	-0.489116	0.465703	0.605184	0.421471
10856		9.673955	0.545150	-1.396548	0.015934	0.004637	0.000413	-0.489145	0.465660	0.605228	0.421423
10857		9.661798	0.601721	-1.381426	0.004589	0.002226	-0.002143	-0.489144	0.465636	0.605252	0.421416
10858		9.697932	0.539984	-1.397218	0.002394	0.009164	0.003358	-0.489161	0.465627	0.605249	0.421411
10859		9.695920	0.521370	-1.367603	-0.017840	0.002212	-0.000556	-0.489110	0.465664	0.605221	0.421468
10860		9.686413	0.488705	-1.409562	-0.015987	0.005024	-0.002369	-0.489061	0.465691	0.605202	0.421523
10861		9.713187	0.475260	-1.333807	-0.012973	0.005978	-0.004229	-0.489024	0.465699	0.605183	0.421584
10862		9.675266	0.424472	-1.368910	-0.011534	0.005661	-0.005805	-0.488980	0.465703	0.605180	0.421636
10863		9.681975	0.467118	-1.402740	-0.000871	0.001770	-0.005596	-0.488959	0.465680	0.605203	0.421651
10864		9.677436	0.443999	-1.397158	0.007874	0.006357	-0.001413	-0.488971	0.465648	0.605230	0.421635
10865		9.696782	0.415690	-1.392885	0.005003	0.005357	-0.002377	-0.488978	0.465618	0.605246	0.421636
10866		9.677593	0.443847	-1.396116	0.004569	0.005490	0.006088	-0.488995	0.465619	0.605251	0.421610
10867		9.704022	0.443079	-1.373251	0.003273	0.005761	0.004842	-0.489011	0.465620	0.605242	0.421602
10868		9.713629	0.475519	-1.330491	-0.000156	0.001676	0.006936	-0.489006	0.465642	0.605244	0.421579
10869		9.661062	0.475370	-1.374767	-0.000758	0.006619	0.003925	-0.489018	0.465643	0.605232	0.421584
10870		9.682195	0.479113	-1.452185	-0.003349	0.007162	0.001432	-0.489012	0.465645	0.605226	0.421597
10871		9.656659	0.451488	-1.368429	0.004299	0.002315	0.003502	-0.489022	0.465639	0.605237	0.421575
10872		9.708676	0.478358	-1.428956	0.004992	0.006986	0.001737	-0.489036	0.465622	0.605249	0.421562
10873		9.689881	0.492684	-1.379150	0.005126	0.008573	0.003029	-0.489066	0.465599	0.605247	0.421554
10874		9.692468	0.497131	-1.354617	-0.000759	0.006618	0.003924	-0.489069	0.465604	0.605242	0.421552
10875		9.697150	0.520300	-1.359262	-0.006498	0.004620	0.001996	-0.489056	0.465619	0.605225	0.421575
10876		9.668449	0.515646	-1.404888	-0.010529	0.005479	0.001079	-0.489028	0.465641	0.605209	0.421606
10877		9.704597	0.453994	-1.420577	-0.007660	0.006477	0.002042	-0.489013	0.465662	0.605180	0.421642
10878		9.683310	0.463919	-1.394567	0.004122	0.008754	-0.003859	-0.489018	0.465626	0.605198	0.421650
10879		9.685539	0.482691	-1.422863	0.000826	0.006257	-0.000473	-0.489028	0.465603	0.605205	0.421654
10880		9.688097	0.487402	-1.398392	0.002254	0.007572	0.002066	-0.489038	0.465593	0.605208	0.421649
10881		9.690343	0.505834	-1.426722	-0.000615	0.006572	0.001102	-0.489046	0.465581	0.605205	0.421657
10882		9.686183	0.468277	-1.367985	-0.006381	0.007835	0.007400	-0.489047	0.465608	0.605178	0.421665
10883		9.664897	0.477656	-1.342077	-0.007942	0.004934	0.003568	-0.489036	0.465629	0.605154	0.421689
10884		9.709926	0.476328	-1.421121	-0.010959	0.003978	0.005425	-0.489011	0.465669	0.605131	0.421707
10885		9.686148	0.481170	-1.419224	-0.012107	0.004206	0.001356	-0.488984	0.465694	0.605107	0.421746
10886		9.686546	0.467276	-1.365755	-0.014579	0.007963	0.004268	-0.488960	0.465731	0.605069	0.421787
10887		9.681809	0.457552	-1.412318	-0.013887	0.012632	0.002502	-0.488959	0.465744	0.605019	0.421845
10888		9.698801	0.424500	-1.431065	-0.010723	0.013544	-0.002175	-0.488948	0.465741	0.604990	0.421904
10889		9.656103	0.444363	-1.379645	-0.006356	0.004572	-0.000829	-0.488932	0.465743	0.604982	0.421931
10890		9.675441	0.415848	-1.375312	-0.003502	0.007199	0.004250	-0.488931	0.465755	0.604969	0.421937
10891		9.706409	0.438655	-1.357711	0.002722	0.001041	0.003787	-0.488933	0.465759	0.604977	0.421919
10892		9.711051	0.461594	-1.362783	0.001279	0.001356	0.005361	-0.488927	0.465774	0.604987	0.421895
10893		9.663154	0.484923	-1.412355	0.000529	0.006340	0.005170	-0.488945	0.465774	0.604976	0.421891
10894		9.696592	0.512527	-1.370751	-0.003635	0.005613	0.002957	-0.488936	0.465785	0.604970	0.421897
10895		9.670425	0.512595	-1.392348	-0.002942	0.010283	0.001192	-0.488952	0.465771	0.604953	0.421919
10896		9.708798	0.469443	-1.436691	-0.005960	0.009326	0.003046	-0.488949	0.465781	0.604932	0.421941
10897		9.692116	0.502641	-1.415767	-0.005944	0.007699	-0.001067	-0.488945	0.465772	0.604921	0.421972
10898		9.694666	0.507483	-1.391101	-0.011569	0.008912	0.002405	-0.488928	0.465794	0.604891	0.422011
10899		9.668746	0.493996	-1.359833	-0.018604	0.007186	-0.000778	-0.488886	0.465828	0.604845	0.422085
10900		9.661783	0.466059	-1.377868	-0.017723	0.003786	0.000704	-0.488835	0.465871	0.604819	0.422135
10901		9.702542	0.427971	-1.398678	-0.012867	0.009181	0.001155	-0.488824	0.465883	0.604784	0.422185
10902		9.702632	0.428017	-1.398044	-0.006640	0.003027	0.000695	-0.488796	0.465900	0.604783	0.422200
10903		9.709748	0.456169	-1.378829	-0.006096	0.007737	0.001753	-0.488794	0.465905	0.604761	0.422228
10904		9.662173	0.466046	-1.375133	-0.005966	0.009320	0.003045	-0.488792	0.465915	0.604741	0.422250
10905		9.683749	0.456128	-1.399418	-0.014314	0.009491	0.002725	-0.488777	0.465942	0.604693	0.422306
10906		9.686310	0.460545	-1.374710	-0.006398	0.007816	0.007393	-0.488778	0.465969	0.604665	0.422314
10907		9.693426	0.488273	-1.355603	-0.002889	0.000625	0.003145	-0.488764	0.465985	0.604664	0.422313
10908		9.691057	0.483260	-1.379189	-0.009531	0.003650	0.003837	-0.488738	0.466018	0.604648	0.422331
10909		9.714769	0.492187	-1.432895	-0.017449	0.005323	-0.000832	-0.488700	0.466043	0.604617	0.422390
10910		9.679360	0.445891	-1.444293	-0.015744	0.008176	0.000181	-0.488666	0.466071	0.604585	0.422446
10911		9.679703	0.432187	-1.390471	-0.011017	0.011987	-0.000656	-0.488663	0.466068	0.604550	0.422502
10912		9.686882	0.460630	-1.370644	-0.011149	0.010404	-0.001950	-0.488641	0.466073	0.604528	0.422554
10913		9.660967	0.447113	-1.339142	-0.011170	0.012024	0.002163	-0.488642	0.466082	0.604484	0.422605
10914		9.708613	0.450939	-1.393861	-0.009255	0.005188	0.002306	-0.488618	0.466106	0.604468	0.422629
10915		9.704104	0.427228	-1.388032	-0.003383	0.008768	0.005541	-0.488634	0.466114	0.604441	0.422641
10916		9.685009	0.455307	-1.390945	-0.004809	0.007457	0.002998	-0.488628	0.466124	0.604428	0.422655
10917		9.704377	0.426658	-1.386298	-0.007138	0.011166	0.003087	-0.488638	0.466128	0.604393	0.422690
10918		9.687700	0.459552	-1.365215	-0.001939	0.008455	0.003969	-0.488645	0.466132	0.604381	0.422695
10919		9.683190	0.435766	-1.359372	0.006283	0.006704	0.003002	-0.488670	0.466113	0.604385	0.422681
10920		9.668560	0.500979	-1.420378	0.018798	0.007260	0.005549	-0.488724	0.466073	0.604417	0.422617
10921		9.675842	0.514467	-1.348403	0.010034	0.004303	0.005455	-0.488759	0.466054	0.604432	0.422576
10922		9.728130	0.541243	-1.408585	0.010597	0.007389	0.002400	-0.488788	0.466024	0.604453	0.422545
10923		9.706764	0.550909	-1.382738	-0.004787	0.005836	-0.001118	-0.488777	0.466022	0.604444	0.422573
10924		9.704451	0.546484	-1.405927	-0.014432	0.006278	-0.002695	-0.488734	0.466041	0.604426	0.422627
10925		9.678407	0.533496	-1.374942	-0.017151	0.005240	-0.006487	-0.488680	0.466055	0.604405	0.422704
10926		9.736021	0.463010	-1.415578	-0.014754	0.012759	-0.007234	-0.488647	0.466048	0.604380	0.422786
10927		9.686189	0.455261	-1.382715	-0.008109	0.009737	-0.007921	-0.488628	0.466022	0.604373	0.422846
10928		9.681683	0.432451	-1.376538	-0.002522	0.011771	-0.003157	-0.488629	0.465999	0.604368	0.422879
10929		9.677186	0.409427	-1.370372	0.011465	0.010399	-0.006289	-0.488658	0.465933	0.604394	0.422881
10930		9.677191	0.423277	-1.422334	0.010442	0.007429	0.005226	-0.488692	0.465912	0.604408	0.422844
10931		9.677403	0.409014	-1.368959	0.010619	0.005769	-0.001708	-0.488718	0.465867	0.604436	0.422824
10932		9.679714	0.427496	-1.397616	0.009774	0.001141	0.002874	-0.488726	0.465854	0.604470	0.422780
10933		9.689108	0.459845	-1.355084	0.003728	-0.000778	0.006569	-0.488734	0.465862	0.604483	0.422743
10934		9.715297	0.472697	-1.385164	0.001655	0.006092	0.009240	-0.488753	0.465878	0.604473	0.422718
10935		9.684562	0.448776	-1.401922	0.001807	0.006053	0.006420	-0.488772	0.465883	0.604460	0.422708
10936		9.701092	0.509137	-1.339828	-0.000395	0.011341	0.007797	-0.488799	0.465889	0.604436	0.422706
10937		9.672685	0.504263	-1.385025	0.005675	0.011637	-0.000011	-0.488832	0.465852	0.604433	0.422711
10938		9.670480	0.499305	-1.407837	-0.000371	0.009720	0.003684	-0.488846	0.465849	0.604422	0.422715
10939		9.696904	0.485080	-1.331663	0.001384	0.009330	-0.003526	-0.488856	0.465815	0.604426	0.422736
10940		9.690012	0.457106	-1.349533	-0.000346	0.008099	-0.000429	-0.488856	0.465802	0.604428	0.422747
10941		9.694761	0.480287	-1.353966	0.007568	0.006425	0.004252	-0.488886	0.465785	0.604432	0.422725
10942		9.690232	0.456222	-1.348255	0.007413	0.006464	0.007071	-0.488914	0.465780	0.604438	0.422690
10943		9.690363	0.455163	-1.347669	0.014159	0.006642	0.011793	-0.488977	0.465767	0.604440	0.422629
10944		9.685780	0.444594	-1.394815	0.012892	0.005293	0.006430	-0.489013	0.465748	0.604462	0.422576
10945		9.695254	0.476372	-1.351817	0.018189	0.005781	0.012721	-0.489086	0.465728	0.604474	0.422497
10946		9.704667	0.522117	-1.361698	0.012762	0.003710	0.005137	-0.489114	0.465709	0.604502	0.422444
10947		9.704728	0.535412	-1.413976	0.013454	0.008372	0.003371	-0.489163	0.465669	0.604518	0.422410
10948		9.700243	0.497750	-1.355275	-0.000501	0.008137	0.002386	-0.489169	0.465665	0.604513	0.422414
10949		9.647982	0.498085	-1.399391	-0.005981	0.009308	0.003024	-0.489178	0.465667	0.604488	0.422438
10950		9.681295	0.525756	-1.357483	-0.007966	0.004917	0.003539	-0.489158	0.465692	0.604473	0.422454
10951		9.669726	0.473809	-1.370529	-0.008123	0.004956	0.006358	-0.489153	0.465721	0.604444	0.422469
10952		9.676817	0.501607	-1.351335	-0.012283	0.004233	0.004135	-0.489123	0.465760	0.604420	0.422495
10953		9.717578	0.463188	-1.372321	-0.012411	0.002652	0.002844	-0.489096	0.465790	0.604399	0.422524
10954		9.665266	0.449619	-1.364239	-0.009827	0.002105	0.005344	-0.489068	0.465831	0.604383	0.422535
10955		9.713041	0.439222	-1.366487	0.000664	0.006282	0.002346	-0.489081	0.465820	0.604380	0.422535
10956		9.696278	0.472117	-1.345953	-0.008252	0.003373	0.005065	-0.489060	0.465854	0.604365	0.422544
10957		9.694012	0.466856	-1.369442	-0.012726	0.002727	0.008480	-0.489041	0.465906	0.604327	0.422563
10958		9.684736	0.419519	-1.358947	-0.014146	0.001420	0.005937	-0.489002	0.465960	0.604302	0.422584
10959		9.694125	0.465682	-1.369040	-0.008978	0.000325	0.010938	-0.488991	0.466014	0.604273	0.422579
10960		9.694233	0.478774	-1.421317	-0.006298	0.009377	0.008661	-0.489000	0.466042	0.604239	0.422587
10961		9.675231	0.492480	-1.371410	-0.009325	0.008419	0.010506	-0.489012	0.466079	0.604189	0.422603
10962		9.675352	0.491851	-1.370784	-0.015315	0.003270	0.005974	-0.488976	0.466133	0.604157	0.422631
10963		9.675450	0.491427	-1.370246	-0.020674	0.006017	0.007900	-0.488946	0.466198	0.604094	0.422684
10964		9.697019	0.467315	-1.342286	-0.025659	-0.000949	0.006143	-0.488874	0.466286	0.604050	0.422733
10965		9.711556	0.429240	-1.385959	-0.024966	0.003712	0.004380	-0.488823	0.466352	0.603994	0.422799
10966		9.692434	0.443703	-1.336550	-0.025096	0.002131	0.003086	-0.488755	0.466423	0.603950	0.422862
10967		9.709341	0.410226	-1.356170	-0.019391	0.005731	0.009145	-0.488735	0.466483	0.603892	0.422901
10968		9.659427	0.415095	-1.376726	-0.017942	0.005420	0.007576	-0.488703	0.466544	0.603846	0.422938
10969		9.707212	0.404405	-1.378905	-0.015486	0.003292	0.008784	-0.488684	0.466597	0.603803	0.422961
10970		9.676018	0.488707	-1.367204	-0.015646	0.003324	0.011601	-0.488659	0.466669	0.603757	0.422977
10971		9.690587	0.450142	-1.410838	-0.022681	0.001607	0.008396	-0.488616	0.466745	0.603703	0.423021
10972		9.669144	0.459333	-1.385356	-0.019813	0.002600	0.009371	-0.488575	0.466821	0.603655	0.423052
10973		9.680934	0.510275	-1.371379	-0.017197	0.000438	0.007761	-0.488538	0.466887	0.603615	0.423080
10974		9.721642	0.471596	-1.392639	-0.023980	0.001876	0.007139	-0.488479	0.466968	0.603565	0.423129
10975		9.693106	0.438866	-1.333275	-0.019786	0.000984	0.005256	-0.488435	0.467029	0.603525	0.423170
10976		9.667030	0.453419	-1.408106	-0.020223	0.005893	-0.000570	-0.488381	0.467070	0.603491	0.423235
10977		9.688524	0.429964	-1.380275	-0.021176	-0.001929	-0.001402	-0.488309	0.467122	0.603469	0.423293
10978		9.690890	0.449177	-1.409067	-0.023511	0.001772	-0.001320	-0.488234	0.467177	0.603439	0.423360
10979		9.660006	0.412511	-1.373436	-0.020355	0.004310	-0.001866	-0.488184	0.467210	0.603406	0.423428
10980		9.679178	0.384324	-1.369442	-0.018183	0.000637	0.000865	-0.488122	0.467261	0.603386	0.423472
10981		9.712454	0.426136	-1.380616	-0.016764	0.001936	0.003410	-0.488084	0.467307	0.603355	0.423511
10982		9.667117	0.440883	-1.353940	-0.025545	-0.001023	0.003286	-0.488005	0.467387	0.603318	0.423567
10983		9.702709	0.487391	-1.341318	-0.020935	0.001212	0.001176	-0.487950	0.467437	0.603284	0.423622
10984		9.674241	0.483604	-1.387331	-0.025985	0.003886	-0.002538	-0.487873	0.467490	0.603247	0.423705
10985		9.693375	0.455893	-1.383446	-0.023620	-0.001422	-0.006738	-0.487788	0.467528	0.603233	0.423781
10986		9.698036	0.480446	-1.388347	-0.020302	0.001090	-0.010099	-0.487700	0.467550	0.603232	0.423860
10987		9.697981	0.481831	-1.388250	-0.011900	-0.000675	-0.013858	-0.487626	0.467540	0.603253	0.423925
10988		9.693172	0.459892	-1.383545	-0.015474	-0.006343	-0.013092	-0.487520	0.467556	0.603288	0.423980
10989		9.719269	0.475089	-1.414062	-0.007861	-0.001530	-0.012922	-0.487457	0.467538	0.603321	0.424026
10990		9.688313	0.439250	-1.378827	-0.010198	0.002169	-0.012836	-0.487390	0.467525	0.603345	0.424083
10991		9.669121	0.469268	-1.382184	-0.017118	0.002021	-0.014758	-0.487312	0.467518	0.603352	0.424171
10992		9.671431	0.475397	-1.357891	-0.016868	0.005169	-0.012168	-0.487240	0.467517	0.603353	0.424254
10993		9.690582	0.448654	-1.353792	-0.028088	0.002717	-0.017624	-0.487131	0.467528	0.603340	0.424384
10994		9.633508	0.428078	-1.393629	-0.028662	-0.000382	-0.014584	-0.487010	0.467560	0.603335	0.424496
10995		9.681165	0.419881	-1.396059	-0.025221	0.003708	-0.016647	-0.486912	0.467565	0.603323	0.424617
10996		9.678822	0.402833	-1.366638	-0.017892	0.006980	-0.014949	-0.486838	0.467554	0.603324	0.424714
10997		9.693326	0.352641	-1.357716	-0.014510	-0.000143	-0.016380	-0.486756	0.467539	0.603346	0.424792
10998		9.661800	0.424986	-1.293495	-0.005373	-0.005262	-0.015841	-0.486671	0.467520	0.603406	0.424826
10999		9.680952	0.426567	-1.395505	-0.000665	0.000164	-0.012530	-0.486630	0.467483	0.603449	0.424853
11000		9.676266	0.418594	-1.443270	-0.003700	-0.000811	-0.010696	-0.486573	0.467466	0.603489	0.424879
11001		9.707029	0.442884	-1.425712	-0.000509	0.000135	-0.015350	-0.486529	0.467418	0.603540	0.424912
11002		9.659242	0.440090	-1.370241	-0.006012	0.001280	-0.014726	-0.486465	0.467390	0.603579	0.424960
11003		9.694658	0.502521	-1.410176	-0.007436	-0.000025	-0.017278	-0.486396	0.467358	0.603617	0.425021
11004		9.642176	0.476584	-1.349981	-0.013475	-0.003580	-0.017729	-0.486293	0.467349	0.603659	0.425088
11005		9.677509	0.524886	-1.337467	-0.011771	-0.000731	-0.016701	-0.486219	0.467323	0.603693	0.425153
11006		9.641999	0.494406	-1.402744	-0.017432	0.000438	-0.013257	-0.486129	0.467330	0.603707	0.425229
11007		9.661166	0.482110	-1.451692	-0.019874	0.000951	-0.018588	-0.486032	0.467321	0.603718	0.425333
11008		9.691857	0.507549	-1.433983	-0.019691	-0.000684	-0.025530	-0.485907	0.467298	0.603758	0.425444
11009		9.689422	0.476922	-1.352430	0.006014	0.002003	-0.027487	-0.485855	0.467198	0.603842	0.425495
11010		9.640751	0.597638	-1.320277	0.020081	-0.000908	-0.034692	-0.485803	0.467050	0.603989	0.425509
11011		9.666654	0.629154	-1.403445	0.012740	-0.004204	-0.036403	-0.485731	0.466913	0.604127	0.425544
11012		9.630960	0.600300	-1.469456	0.015079	-0.007904	-0.036498	-0.485643	0.466786	0.604284	0.425562
11013		9.673738	0.584697	-1.520791	0.022306	-0.007804	-0.040219	-0.485575	0.466622	0.604460	0.425569
11014		9.632573	0.611891	-1.447240	0.038312	-0.004714	-0.043808	-0.485534	0.466409	0.604675	0.425543
11015		9.656092	0.610809	-1.449319	0.058382	-0.004082	-0.050587	-0.485540	0.466115	0.604945	0.425475
11016		9.644401	0.534824	-1.358821	0.073553	-0.007261	-0.053748	-0.485552	0.465791	0.605264	0.425362
11017		9.710028	0.608364	-1.329764	0.073190	-0.005611	-0.044004	-0.485599	0.465486	0.605552	0.425232
11018		9.718611	0.686712	-1.446143	0.058718	-0.005838	-0.036573	-0.485617	0.465247	0.605798	0.425124
11019		9.739883	0.693209	-1.524695	0.027303	-0.000889	-0.014640	-0.485632	0.465138	0.605906	0.425072
11020		9.704703	0.632819	-1.484488	-0.014013	0.001311	0.003105	-0.485587	0.465184	0.605888	0.425099
11021		9.686747	0.538049	-1.463938	-0.056813	0.005424	0.026535	-0.485515	0.465390	0.605710	0.425208
11022		9.656352	0.498192	-1.428011	-0.099130	0.001366	0.047523	-0.485367	0.465780	0.605409	0.425380
11023		9.688462	0.409633	-1.438971	-0.142139	0.002173	0.065452	-0.485167	0.466323	0.604966	0.425643
11024		9.742095	0.310396	-1.475279	-0.182770	0.000771	0.084521	-0.484900	0.467032	0.604401	0.425972
11025		9.751152	0.101927	-1.462093	-0.211563	0.004818	0.103118	-0.484627	0.467852	0.603717	0.426352
11026		9.721407	-0.051422	-1.455911	-0.231559	0.014935	0.127222	-0.484379	0.468779	0.602915	0.426752
11027		9.679081	-0.150662	-1.434262	-0.230823	0.012665	0.153566	-0.484192	0.469778	0.602056	0.427078
11028		9.667221	-0.229641	-1.395621	-0.240436	0.007580	0.181251	-0.484012	0.470905	0.601126	0.427351
11029		9.671782	-0.329394	-1.431147	-0.237948	-0.000128	0.211716	-0.483885	0.472128	0.600143	0.427526
11030		9.642222	-0.489260	-1.404725	-0.232987	-0.006948	0.248743	-0.483817	0.473468	0.599108	0.427573
11031		9.692766	-0.621542	-1.392995	-0.225417	-0.012931	0.289498	-0.483847	0.474913	0.598007	0.427479
11032		9.576396	-0.613972	-1.340390	-0.215530	-0.011564	0.329517	-0.483972	0.476460	0.596831	0.427259
11033		9.588035	-0.682060	-1.387532	-0.213110	-0.005979	0.382593	-0.484242	0.478140	0.595515	0.426912
11034		9.642570	-0.697499	-1.348720	-0.201925	-0.000757	0.427509	-0.484633	0.479921	0.594109	0.426428
11035		9.596757	-0.719628	-1.298783	-0.206292	0.010301	0.480681	-0.485170	0.481836	0.592536	0.425846
11036		9.550173	-0.762534	-1.195754	-0.210370	0.017483	0.537821	-0.485821	0.483922	0.590801	0.425150
11037		9.584906	-0.781140	-1.105311	-0.221994	0.022587	0.591383	-0.486584	0.486169	0.588896	0.424356
11038		9.634393	-0.794690	-1.216126	-0.226708	0.031866	0.650507	-0.487463	0.488591	0.586812	0.423450
11039		9.708043	-0.633437	-1.281146	-0.231114	0.045309	0.707627	-0.488498	0.491152	0.584537	0.422440
11040		9.748535	-0.717958	-1.303679	-0.266962	0.082317	0.768228	-0.489661	0.493903	0.581945	0.421465
11041		9.750988	-0.751760	-1.353146	-0.271406	0.094948	0.810695	-0.490943	0.496748	0.579195	0.420416
11042		9.805782	-0.533933	-1.318826	-0.291260	0.111094	0.866492	-0.492316	0.499768	0.576221	0.419317
11043		10.040517	-0.569183	-1.389053	-0.290858	0.140660	0.907032	-0.493865	0.502826	0.573060	0.418170
11044		10.095436	-0.708897	-1.422393	-0.321199	0.205251	0.950610	-0.495587	0.505949	0.569554	0.417154
11045		9.778281	-0.698410	-1.186765	-0.353082	0.218385	0.985761	-0.497342	0.509205	0.565842	0.416154
11046		10.034110	-0.775876	-1.196992	-0.384734	0.214673	1.038206	-0.499082	0.512689	0.561930	0.415092
11047		10.156719	-1.168501	-1.277700	-0.396088	0.275129	1.085160	-0.501063	0.516188	0.557702	0.414071
11048		10.026953	-1.297384	-0.967384	-0.415130	0.304373	1.128920	-0.503131	0.519787	0.553231	0.413057
11049		10.786327	-0.924324	-0.945432	-0.435166	0.321186	1.189588	-0.505311	0.523548	0.548491	0.411965
11050		10.746230	-1.633922	-0.849516	-0.474788	0.386075	1.240850	-0.507637	0.527401	0.543355	0.410997
11051		11.003201	-1.735083	-0.791705	-0.491475	0.447935	1.273707	-0.510143	0.531234	0.537903	0.410127
11052		11.097600	-1.564263	-0.442402	-0.542130	0.495886	1.330881	-0.512722	0.535230	0.532054	0.409345
11053		11.214821	-2.531715	-0.337798	-0.588054	0.546760	1.370928	-0.515379	0.539316	0.525830	0.408688
11054		11.443630	-1.976502	-0.092244	-0.558997	0.608495	1.415350	-0.518322	0.543288	0.519363	0.407973
11055		11.471698	-1.865472	0.289275	-0.717962	0.687579	1.463810	-0.521117	0.547603	0.512183	0.407720
11056		11.621495	-2.242120	0.529126	-0.741868	0.753958	1.515644	-0.524070	0.551941	0.504608	0.407534
11057		11.665286	-2.606609	0.877369	-0.682366	0.817880	1.563781	-0.527413	0.556065	0.496800	0.407206
11058		12.061377	-2.545296	1.533557	-0.714323	0.861174	1.626989	-0.530843	0.560297	0.488603	0.406866
11059		12.192010	-2.458288	1.800471	-0.748842	0.958513	1.683519	-0.534492	0.564507	0.479856	0.406681
11060		12.467162	-2.922548	1.800695	-0.621484	1.021619	1.714392	-0.538642	0.568265	0.471073	0.406239
11061		12.138326	-2.175255	2.164293	-0.653828	1.039639	1.697191	-0.542665	0.571968	0.462159	0.405926
11062		12.025039	-1.713638	2.118778	-0.714522	1.027944	1.661932	-0.546345	0.575721	0.453212	0.405773
11063		11.737644	-1.840944	2.013915	-0.758726	1.103068	1.608923	-0.549920	0.579257	0.444053	0.406038
11064		10.786010	-1.179367	1.981071	-0.775126	1.181451	1.541184	-0.553414	0.582474	0.434795	0.406706
11065		10.114253	-1.255044	1.647928	-0.880482	1.197949	1.447467	-0.556406	0.585677	0.425481	0.407873
11066		9.641094	-1.153153	1.188340	-0.835986	1.236762	1.346513	-0.559334	0.588408	0.416405	0.409302
11067		9.141961	-0.907218	0.870886	-0.851160	1.244011	1.221274	-0.561941	0.590839	0.407583	0.411105
11068		8.728647	-1.831776	0.680914	-0.875355	1.227440	1.091954	-0.564111	0.593062	0.399106	0.413243
11069		8.435258	-2.249089	0.763383	-0.756000	1.183905	0.980680	-0.566287	0.594755	0.391283	0.415311
11070		8.450440	-2.113139	0.762062	-0.645578	1.158425	0.865427	-0.568446	0.595927	0.384084	0.417396
11071		8.453754	-2.243292	0.625231	-0.569853	1.151377	0.759914	-0.570579	0.596648	0.377339	0.419602
11072		8.259470	-1.990052	0.929962	-0.513894	1.110144	0.644881	-0.572513	0.597054	0.371159	0.421897
11073		8.112346	-1.607329	1.020040	-0.533114	1.020951	0.534190	-0.573978	0.597457	0.365493	0.424274
11074		8.122396	-1.078886	0.517455	-0.536110	0.965004	0.431473	-0.575077	0.597784	0.360280	0.426777
11075		8.032758	-0.938441	-0.201183	-0.620612	0.923730	0.321241	-0.575610	0.598211	0.355305	0.429623
11076		7.820755	-1.293764	-0.464381	-0.672452	0.887709	0.200363	-0.575630	0.598638	0.350674	0.432793
11077		7.872734	-1.461056	-0.288781	-0.750051	0.819019	0.092291	-0.575060	0.599216	0.346369	0.436205
11078		8.175027	-1.652921	-0.031375	-0.796219	0.785862	0.026726	-0.574119	0.599876	0.342249	0.439774
11079		8.024308	-1.692468	0.286662	-0.814628	0.745721	-0.032665	-0.572919	0.600545	0.338360	0.443421
11080		7.984911	-1.732543	0.370029	-0.774984	0.713199	-0.098748	-0.571604	0.601050	0.334847	0.447084
11081		7.836337	-1.949794	0.384662	-0.721607	0.712660	-0.163702	-0.570301	0.601267	0.331630	0.450840
11082		7.691984	-2.105386	0.527240	-0.688417	0.701396	-0.232171	-0.568895	0.601294	0.328721	0.454693
11083		7.498898	-2.023264	0.861857	-0.724845	0.685638	-0.299981	-0.567198	0.601322	0.325957	0.458748
11084		7.623635	-1.988854	1.050955	-0.807685	0.662060	-0.367470	-0.565032	0.601521	0.323264	0.463046
11085		7.606622	-2.088780	0.910935	-0.843042	0.653164	-0.430121	-0.562594	0.601709	0.320680	0.467545
11086		7.726329	-2.159435	0.875248	-0.872307	0.617201	-0.494294	-0.559829	0.601949	0.318315	0.472149
11087		7.906166	-2.072708	0.824483	-0.942575	0.592605	-0.550411	-0.556673	0.602321	0.315998	0.476938
11088		7.821212	-2.048823	0.723517	-1.085062	0.559190	-0.604627	-0.552872	0.603068	0.313585	0.481981
11089		7.567508	-1.763316	0.600203	-1.262922	0.506494	-0.641620	-0.548348	0.604335	0.310973	0.487227
11090		7.438450	-1.858802	0.652935	-1.416214	0.447663	-0.673494	-0.543146	0.606089	0.308230	0.492588
11091		7.484513	-1.681402	0.723672	-1.514479	0.392047	-0.677019	-0.537526	0.608188	0.305379	0.497912
11092		7.603809	-1.960973	0.541736	-1.713251	0.321657	-0.669550	-0.531160	0.610971	0.302180	0.503260
11093		7.427098	-2.501902	0.062805	-1.899837	0.250414	-0.647141	-0.524134	0.614396	0.298599	0.508567
11094		7.353049	-3.191126	-0.447036	-2.049780	0.143995	-0.628440	-0.516466	0.618455	0.294835	0.513663
11095		7.454425	-3.998913	-0.761630	-2.095714	0.021547	-0.605654	-0.508479	0.622896	0.291165	0.518336
11096		6.756723	-3.436402	-0.908840	-2.046519	-0.101444	-0.546300	-0.500543	0.627553	0.287737	0.522343
11097		6.788507	-4.169651	-1.066841	-2.141887	-0.319291	-0.473914	-0.492127	0.633035	0.284352	0.525567
11098		6.930726	-4.821990	-1.435799	-2.293719	-0.552346	-0.411121	-0.482979	0.639515	0.280927	0.528045
11099		7.302458	-5.725827	-1.858755	-2.363075	-0.748521	-0.360682	-0.473397	0.646645	0.277595	0.529799
11100		7.657396	-6.300955	-2.177465	-2.269758	-0.891820	-0.343742	-0.463869	0.653860	0.274772	0.530842
11101		7.849900	-6.478885	-1.991938	-2.064957	-0.925744	-0.348797	-0.454889	0.660581	0.272549	0.531438
11102		8.212578	-6.434259	-1.508272	-1.753244	-0.850982	-0.363804	-0.446934	0.666301	0.271014	0.531832
11103		7.974962	-6.352359	-0.816290	-1.340885	-0.747582	-0.400731	-0.440365	0.670714	0.270439	0.532057
11104		7.943140	-6.188789	-0.245517	-0.947692	-0.657068	-0.453268	-0.435057	0.673915	0.270886	0.532151
11105		8.082159	-6.201330	0.012822	-0.687187	-0.608265	-0.481187	-0.430615	0.676353	0.271997	0.532104
11106		8.168931	-6.147017	-0.309236	-0.539580	-0.588472	-0.490113	-0.426648	0.678394	0.273495	0.531934
11107		8.502032	-6.196490	-0.647576	-0.633111	-0.625309	-0.466539	-0.422381	0.680747	0.274726	0.531699
11108		9.231601	-6.664025	-0.721433	-0.792209	-0.607918	-0.462043	-0.417587	0.683382	0.275480	0.531715
11109		9.826727	-7.107949	-0.687764	-0.923951	-0.535465	-0.479859	-0.412404	0.686053	0.275762	0.532174
11110		10.223924	-6.980869	-0.649114	-0.964772	-0.455893	-0.510490	-0.407084	0.688535	0.275871	0.533007
11111		10.368218	-6.647222	-0.865652	-0.936511	-0.418873	-0.532220	-0.401859	0.690806	0.276028	0.533952
11112		10.241450	-6.082513	-1.055657	-0.848781	-0.428906	-0.548577	-0.396847	0.692882	0.276504	0.534764
11113		10.523644	-5.744978	-1.352805	-0.687187	-0.530257	-0.541410	-0.392271	0.694893	0.277577	0.534974
11114		11.809613	-5.301069	-1.291746	-0.509840	-0.713819	-0.505479	-0.388111	0.697074	0.279388	0.534228
11115		13.325879	-5.171010	-0.518417	-0.331866	-0.697282	-0.446829	-0.384757	0.698931	0.281425	0.533157
11116		12.976334	-5.032182	0.424320	-0.180413	-0.587496	-0.332388	-0.382370	0.700360	0.283269	0.532023
11117		11.829336	-5.001245	1.454686	-0.247002	-0.618685	-0.189150	-0.380102	0.702197	0.284484	0.530576
11118		10.960637	-6.073294	1.481420	-0.425701	-0.722897	-0.022221	-0.377475	0.704882	0.284860	0.528685
11119		10.636796	-6.893892	-0.396067	-0.369140	-0.867489	0.102924	-0.375178	0.708006	0.285215	0.525948
11120		9.937671	-4.971507	-0.603961	0.198238	-0.744381	0.097402	-0.375015	0.709717	0.286870	0.522849
11121		9.050803	-0.132583	0.641190	0.689751	-0.459582	-0.011794	-0.376738	0.709590	0.289632	0.520253
11122		7.495181	5.306416	2.207715	0.359745	-0.133751	-0.172342	-0.377341	0.709007	0.291463	0.519588
11123		6.595549	7.614263	1.368953	-0.659998	-0.182808	-0.418945	-0.373656	0.710110	0.291548	0.520697
11124		7.316119	7.062503	-0.934410	-1.608099	-0.402915	-0.662442	-0.365621	0.713169	0.290411	0.522851
11125		8.997154	4.969591	-2.122556	-1.928029	-0.545222	-0.805146	-0.355850	0.716899	0.289156	0.525182
11126		10.761717	2.499130	-1.746320	-2.251375	-0.561097	-0.842583	-0.344737	0.721101	0.287178	0.527919
11127		12.289622	-1.220851	-2.893978	-2.348534	-0.487547	-0.819779	-0.333410	0.725197	0.284670	0.530933
11128		12.886849	-2.336013	-3.386258	-1.803898	-0.374007	-0.804221	-0.324192	0.728012	0.283347	0.533491
11129		12.415952	-2.000433	-2.550315	-1.290453	-0.208799	-0.726576	-0.317272	0.729604	0.282821	0.535751
11130		11.119658	-1.189185	-1.936242	-0.988982	-0.127666	-0.657099	-0.311718	0.730570	0.282726	0.537741
11131		10.053080	-0.402748	-2.152847	-0.850757	-0.144979	-0.597861	-0.306807	0.731424	0.282802	0.539362
11132		9.670411	-0.287058	-2.743230	-0.817333	-0.148614	-0.555571	-0.302101	0.732282	0.282827	0.540840
11133		9.447205	-0.663375	-3.249130	-0.775956	-0.115874	-0.551907	-0.297613	0.732973	0.282882	0.542360
11134		9.260078	-0.232268	-3.463378	-0.714657	-0.095733	-0.527164	-0.293422	0.733542	0.282990	0.543816
11135		9.215617	0.777340	-3.478303	-0.776259	-0.112356	-0.475370	-0.289134	0.734304	0.282750	0.545208
11136		9.725165	0.711539	-3.732757	-0.899543	-0.131247	-0.448519	-0.284418	0.735322	0.282105	0.546648
11137		10.131375	0.468700	-3.859359	-0.908536	-0.096172	-0.475604	-0.279654	0.736197	0.281465	0.548256
11138		10.197504	0.735584	-3.457285	-0.974667	-0.088987	-0.506362	-0.274552	0.737083	0.280743	0.550012
11139		10.270675	1.070010	-3.087094	-1.100883	-0.079422	-0.568958	-0.268834	0.737999	0.279865	0.552052
11140		10.168835	1.754632	-3.141165	-1.233310	-0.073098	-0.567644	-0.262618	0.739051	0.278600	0.554272
11141		9.888050	2.494954	-2.967523	-1.384105	-0.002126	-0.585852	-0.255900	0.740042	0.276858	0.556958
11142		10.363048	1.678395	-2.698993	-1.641140	0.006632	-0.619232	-0.248127	0.741246	0.274491	0.560038
11143		10.400380	0.578689	-2.876579	-1.728653	0.038531	-0.701105	-0.239839	0.742293	0.272103	0.563417
11144		9.960833	-0.409601	-2.892856	-1.683564	0.085839	-0.766405	-0.231567	0.742999	0.270007	0.566944
11145		9.077421	-1.196982	-2.989766	-1.618055	0.086620	-0.759152	-0.223551	0.743573	0.268042	0.570331
11146		8.989275	-1.269008	-2.984343	-1.451436	0.064884	-0.774695	-0.216048	0.743945	0.266628	0.573392
11147		9.205365	-2.521971	-2.922461	-1.416330	0.045588	-0.764229	-0.208674	0.744298	0.265274	0.576285
11148		9.004049	-2.798127	-3.049137	-1.150975	0.049681	-0.754247	-0.202293	0.744333	0.264645	0.578800
11149		8.894825	-2.425885	-2.898618	-0.873950	0.019875	-0.742083	-0.196933	0.744155	0.264797	0.580804
11150		9.586616	-2.250747	-3.280143	-0.668735	0.004241	-0.736597	-0.192307	0.743805	0.265547	0.582457
11151		9.420764	-1.765567	-2.976217	-0.464460	0.018085	-0.730422	-0.188482	0.743208	0.266849	0.583873
11152		9.389331	-1.906079	-2.982146	-0.328434	0.002177	-0.720112	-0.185151	0.742529	0.268534	0.585029
11153		9.237049	-0.945188	-2.708035	-0.247047	0.004163	-0.689377	-0.182223	0.741800	0.270332	0.586044
11154		9.666074	-1.050773	-2.786497	-0.255082	0.020589	-0.669574	-0.179331	0.741048	0.272024	0.587104
11155		9.267946	-1.843945	-2.628864	-0.357670	0.026223	-0.638060	-0.176174	0.740409	0.273277	0.588283
11156		9.044619	-1.142080	-2.251919	-0.300509	0.008239	-0.608387	-0.173273	0.739803	0.274614	0.589283
11157		9.014679	-1.870786	-2.415853	-0.449355	-0.015294	-0.593370	-0.169848	0.739410	0.275462	0.590377
11158		9.260793	-2.239681	-2.241930	-0.471419	-0.021659	-0.587030	-0.166335	0.739052	0.276233	0.591465
11159		8.663550	-1.252767	-1.863719	-0.501949	-0.012729	-0.542976	-0.162867	0.738748	0.276729	0.592577
11160		9.060379	-1.060738	-1.829237	-0.639022	-0.072622	-0.512142	-0.158883	0.738764	0.276761	0.593622
11161		9.319268	-0.985857	-1.587837	-0.747795	-0.060013	-0.523010	-0.154499	0.738803	0.276479	0.594860
11162		9.206697	-1.166595	-1.616154	-0.786234	-0.079197	-0.544861	-0.149862	0.738880	0.276182	0.596088
11163		9.380586	-1.165834	-1.779150	-0.811902	-0.113281	-0.559152	-0.145053	0.739041	0.275870	0.597222
11164		9.926792	-0.976839	-2.055594	-0.724539	-0.145244	-0.562672	-0.140487	0.739207	0.275866	0.598109
11165		9.895980	-0.783093	-2.286201	-0.638216	-0.140293	-0.590571	-0.136177	0.739245	0.276203	0.598903
11166		10.142940	-0.717134	-1.896968	-0.627150	-0.147263	-0.603856	-0.131836	0.739260	0.276633	0.599657
11167		9.960045	-1.051697	-1.841593	-0.559605	-0.132324	-0.615291	-0.127748	0.739158	0.277282	0.600368
11168		9.811988	-1.394325	-1.668429	-0.527023	-0.142061	-0.625838	-0.123711	0.739032	0.278083	0.600997
11169		9.267479	-2.083023	-1.563458	-0.486323	-0.154921	-0.626907	-0.119820	0.738908	0.279002	0.601511
11170		8.747205	-2.841485	-1.427164	-0.441337	-0.182256	-0.622230	-0.116046	0.738830	0.280068	0.601852
11171		8.632750	-3.520871	-1.269665	-0.384747	-0.217559	-0.599348	-0.112517	0.738849	0.281228	0.601957
11172		8.792798	-3.745677	-1.101563	-0.319479	-0.245963	-0.572543	-0.109244	0.738942	0.282517	0.601843
11173		9.127637	-3.462727	-0.941627	-0.287038	-0.252311	-0.527428	-0.106239	0.739097	0.283724	0.601623
11174		9.415595	-3.114316	-1.037684	-0.289054	-0.225916	-0.472574	-0.103405	0.739244	0.284722	0.601465
11175		9.714764	-2.979461	-1.145938	-0.284492	-0.166402	-0.389867	-0.100952	0.739332	0.285377	0.601463
11176		9.955320	-3.128416	-1.245372	-0.326142	-0.079063	-0.273353	-0.098799	0.739345	0.285444	0.601772
11177		9.902953	-3.563695	-1.318255	-0.386243	0.024935	-0.126173	-0.097052	0.739298	0.284711	0.602460
11178		9.663183	-4.087425	-1.374464	-0.458691	0.090338	0.056240	-0.095658	0.739354	0.283071	0.603388
11179		9.598833	-4.642861	-1.448600	-0.532916	0.136660	0.259637	-0.094705	0.739606	0.280412	0.604469
11180		9.973833	-5.096825	-1.384260	-0.610726	0.177897	0.489400	-0.094190	0.740093	0.276669	0.605677
11181		10.647111	-5.678912	-1.345483	-0.735916	0.247625	0.758547	-0.094164	0.740807	0.271490	0.607150
11182		10.910300	-6.587386	-0.931187	-0.930997	0.294666	1.037252	-0.094298	0.741832	0.264677	0.608883
11183		12.039255	-7.446116	-0.299846	-1.163076	0.220019	1.375871	-0.094539	0.743619	0.255905	0.610415
11184		13.547993	-7.784557	0.234032	-0.954986	0.426620	1.721857	-0.096837	0.745066	0.246390	0.612201
11185		14.344302	-5.955937	0.821519	-0.501019	0.799104	2.049803	-0.102332	0.745502	0.236808	0.614554
11186		14.487432	-4.486016	3.569850	-0.754289	0.992499	2.353793	-0.108011	0.745737	0.225196	0.617654
11187		14.695484	-4.152658	5.131364	-1.154506	1.136329	2.676023	-0.113400	0.745980	0.210981	0.621402
11188		14.803187	-3.452069	5.096634	-1.288896	1.283945	2.961928	-0.119273	0.745954	0.195167	0.625489
11189		13.722118	-2.502774	3.750286	-1.203056	1.329975	3.167442	-0.126166	0.745712	0.178742	0.629323
11190		13.726749	-1.232095	2.672804	-1.125383	1.265005	3.340486	-0.133742	0.745531	0.161943	0.632512
11191		16.135496	1.282415	1.189354	-0.941781	1.208544	3.493184	-0.142433	0.745270	0.145118	0.635000
11192		15.754568	3.299618	0.725334	-0.957228	1.433994	3.526577	-0.151250	0.744055	0.127923	0.638076
11193		16.241677	5.820730	1.197877	-1.469259	1.463986	3.508803	-0.158128	0.742824	0.109034	0.641342
11194		16.035925	5.278988	-0.247234	-1.793061	1.486974	3.486155	-0.163639	0.741448	0.089145	0.644616
11195		16.033075	3.553983	-2.000709	-1.918808	1.393292	3.357937	-0.168197	0.740091	0.069330	0.647433
11196		15.362346	2.647634	-2.289018	-1.782515	1.141372	3.171231	-0.172432	0.739069	0.050877	0.649196
11197		14.314621	1.545125	-1.377943	-2.398299	0.948056	2.905267	-0.173455	0.738848	0.031506	0.650403
11198		13.516177	0.217116	-1.168019	-2.913576	0.835410	2.668587	-0.171680	0.739103	0.011428	0.651247
11199		12.470307	-1.418968	-1.436146	-3.057856	0.619437	2.407718	-0.168462	0.739859	-0.008005	0.651279
11200		11.181311	-0.619001	-1.301438	-2.835463	0.440742	2.174944	-0.165191	0.740746	-0.025662	0.650652
11201		11.248150	-4.347897	-1.911645	-2.350527	0.247015	2.089783	-0.163425	0.741656	-0.041260	0.649258
11202		10.746687	-3.909773	-1.082132	-1.445702	0.124865	2.057978	-0.164828	0.742082	-0.053629	0.647511
11203		10.990861	-3.599132	-0.905450	-0.634424	0.130366	2.034868	-0.169156	0.741725	-0.063285	0.645930
11204		10.753225	-2.023592	-0.819948	0.103383	0.321122	2.034039	-0.176091	0.740050	-0.070671	0.645232
11205		9.508204	0.174467	-0.686804	0.717768	0.492011	1.966387	-0.185028	0.737219	-0.075989	0.645367
11206		8.786122	0.895906	-0.816517	1.176666	0.572741	1.857057	-0.195201	0.733652	-0.079457	0.646017
11207		7.800612	1.347798	-0.986603	1.544263	0.610485	1.726349	-0.206279	0.729547	-0.081308	0.646993
11208		6.750962	1.288069	-0.939149	1.890026	0.636610	1.568636	-0.218017	0.724950	-0.081452	0.648292
11209		6.284631	1.451895	-0.847727	2.003555	0.608786	1.374195	-0.229531	0.720269	-0.080509	0.649650
11210		5.774870	1.432751	-1.035685	1.967573	0.538699	1.152184	-0.240145	0.715834	-0.078774	0.650928
11211		5.095976	1.813409	-1.038064	1.848862	0.445177	0.922292	-0.249612	0.711831	-0.076515	0.652025
11212		4.736786	2.325788	-1.160613	1.602848	0.340253	0.701581	-0.257461	0.708485	-0.074123	0.652892
11213		4.645234	2.503081	-1.343330	1.401302	0.239934	0.474544	-0.263894	0.705747	-0.071486	0.653583
11214		4.564413	2.714236	-1.330931	1.223229	0.160505	0.256351	-0.268964	0.703540	-0.068542	0.654211
11215		3.877072	3.179576	-1.445572	1.050737	0.117015	0.048641	-0.272775	0.701740	-0.065408	0.654887
11216		3.509728	3.406528	-1.525951	0.852559	0.032047	-0.156076	-0.275208	0.700532	-0.062076	0.655486
11217		3.215088	3.219559	-1.557020	0.642572	-0.066883	-0.358965	-0.276284	0.699975	-0.058618	0.655947
11218		3.313197	3.458056	-1.652040	0.504443	-0.200962	-0.534487	-0.276300	0.700084	-0.054797	0.656154
11219		2.965287	3.483129	-1.769085	0.281518	-0.341466	-0.708163	-0.275014	0.700988	-0.050932	0.656041
11220		3.249756	2.750640	-1.376172	0.010843	-0.544919	-0.889887	-0.272195	0.702954	-0.047022	0.655404
11221		3.743872	1.430174	-0.866915	-0.127001	-0.731007	-1.095099	-0.268258	0.705730	-0.042610	0.654345
11222		4.297351	-0.014349	0.166311	-0.106433	-0.851140	-1.282908	-0.263756	0.708867	-0.037288	0.653108
11223		5.130333	-1.865026	0.420317	-0.181341	-0.924092	-1.425651	-0.258529	0.712311	-0.031628	0.651747
11224		6.363262	-4.554612	0.809495	-0.349975	-0.914108	-1.459612	-0.252556	0.715892	-0.026399	0.650397
11225		7.863647	-7.904651	1.388754	-0.268410	-0.795516	-1.439239	-0.246933	0.718929	-0.021146	0.649399
11226		9.755891	-10.290313	2.928568	-0.071178	-0.713118	-1.387654	-0.242142	0.721406	-0.015518	0.648614
11227		11.251623	-11.762645	3.523935	0.037581	-0.566418	-1.354869	-0.237855	0.723230	-0.009856	0.648279
11228		12.528032	-13.989798	4.049158	0.007737	-0.413999	-1.241282	-0.233800	0.724564	-0.004869	0.648322
11229		14.432951	-15.944592	4.563536	0.013548	-0.411616	-0.895623	-0.230918	0.725865	-0.001121	0.647917
11230		15.642051	-15.552164	4.058598	-0.014416	-0.595835	-0.481382	-0.229248	0.727803	0.001301	0.646333
11231		15.706411	-13.015254	1.448076	-0.304091	-0.683361	-0.149716	-0.227638	0.730360	0.001670	0.644013
11232		14.103231	-10.043107	-0.668990	-0.777496	-0.685159	0.078345	-0.225018	0.733465	-0.000295	0.641401
11233		11.413420	-6.724517	-1.402656	-1.023978	-0.713586	0.214629	-0.221968	0.736916	-0.003544	0.638493
11234		8.610333	-2.371632	-1.051820	-1.155682	-0.796070	0.252926	-0.218512	0.740749	-0.007233	0.635209
11235		6.946342	1.671286	-0.273030	-1.478395	-0.813879	0.148494	-0.213557	0.744939	-0.011581	0.631922
11236		8.742645	4.035618	1.609039	-1.913322	-0.907046	-0.117018	-0.206090	0.749826	-0.016209	0.628510
11237		13.341738	1.885060	4.786358	-2.126881	-0.738448	-0.495139	-0.196634	0.754316	-0.020325	0.626043
11238		16.590018	-4.451483	10.630363	-1.908896	-0.046939	-0.649007	-0.187421	0.756351	-0.023881	0.626287
11239		17.542734	-13.230456	2.978349	-2.269146	0.304247	-0.304567	-0.177940	0.757504	-0.030238	0.627385
11240		17.947650	-21.346824	-12.439946	-2.194489	-0.036823	0.226862	-0.170399	0.759520	-0.037993	0.626618
11241		16.783785	-14.812139	-14.309231	0.535659	-0.258501	0.547958	-0.174221	0.759807	-0.038121	0.625209
11242		9.751569	3.948184	-0.457430	3.252059	1.077075	0.767406	-0.188739	0.753407	-0.031717	0.629086
11243		-1.248682	18.715132	3.776651	1.882528	0.350070	0.552660	-0.197525	0.750449	-0.028151	0.630093
11244		-0.198352	18.067653	-4.832841	-0.335101	-0.890278	-0.079598	-0.196086	0.753605	-0.027962	0.626776
11245		4.235743	11.065496	-4.470544	-2.247568	-1.117620	-0.710154	-0.185527	0.759323	-0.031265	0.622921
11246		10.308352	2.935952	-4.658532	-2.520848	-1.042026	-1.125118	-0.172556	0.764959	-0.033922	0.619605
11247		15.143170	1.552105	-2.145331	-2.010285	-0.658742	-1.215212	-0.161194	0.768835	-0.035009	0.617805
11248		17.421210	-0.216410	0.585787	-1.336087	-0.293145	-1.231213	-0.152268	0.770953	-0.034229	0.617474
11249		15.815384	-0.866399	-0.075465	-0.750727	-0.033177	-1.228344	-0.145575	0.771768	-0.031863	0.618197
11250		12.453263	1.325732	-0.458999	-0.529449	0.034975	-1.249721	-0.139625	0.772178	-0.028762	0.619209
11251		9.985512	4.039388	-0.823108	-0.607463	0.051337	-1.250568	-0.133388	0.772551	-0.025926	0.620242
11252		9.624287	2.815639	-2.649094	-0.902330	0.074062	-1.340049	-0.125708	0.773017	-0.023675	0.621355
11253		10.061401	1.888859	-4.339515	-0.988825	0.070875	-1.482033	-0.117260	0.773497	-0.021161	0.622499
11254		10.394136	2.254206	-4.830649	-1.118129	0.023512	-1.585536	-0.107963	0.774141	-0.018613	0.623460
11255		10.267082	0.870530	-4.319203	-1.088532	-0.054048	-1.679723	-0.098490	0.774938	-0.015571	0.624122
11256		10.318581	-0.476245	-4.110905	-1.320313	-0.158213	-1.705988	-0.088019	0.776092	-0.013090	0.624310
11257		9.694603	-0.769325	-4.057332	-1.300509	-0.227007	-1.696887	-0.077657	0.777361	-0.010553	0.624154
11258		9.003628	-1.492428	-3.233269	-1.358623	-0.292269	-1.718690	-0.066977	0.778764	-0.008075	0.623679
11259		9.338762	-0.426137	-2.344902	-1.287407	-0.259318	-1.669984	-0.056734	0.779950	-0.005582	0.623240
11260		9.292741	-0.992266	-2.207257	-1.185858	-0.154496	-1.601603	-0.047082	0.780700	-0.003061	0.623123
11261		9.306777	-0.418978	-1.703151	-1.037227	-0.059006	-1.583737	-0.038076	0.781045	-0.000180	0.623313
11262		8.976330	-1.430353	-1.841050	-0.833991	0.029478	-1.604898	-0.029780	0.781006	0.003410	0.623804
11263		8.706028	-1.634824	-2.329428	-0.533400	0.030419	-1.636846	-0.022560	0.780857	0.008062	0.624251
11264		8.487392	-0.719194	-2.619934	-0.095756	0.001806	-1.634489	-0.017025	0.780691	0.014101	0.624526
11265		8.674247	-0.176854	-2.606587	0.244390	-0.011949	-1.606207	-0.012909	0.780493	0.021095	0.624675
11266		8.910023	-0.783679	-2.440203	0.280501	-0.053674	-1.527374	-0.009159	0.780385	0.027914	0.624609
11267		8.978462	-0.995189	-2.298132	0.366519	-0.076931	-1.465567	-0.005947	0.780313	0.034755	0.624394
11268		9.089577	-2.390668	-2.431978	0.106302	-0.177450	-1.488153	-0.001617	0.780511	0.040881	0.623801
11269		9.101337	-2.543221	-2.313593	0.048703	-0.225149	-1.500498	0.002971	0.780813	0.046864	0.622997
11270		8.899359	-2.701734	-2.250493	-0.050853	-0.265988	-1.463656	0.007858	0.781205	0.052402	0.622022
11271		8.546356	-2.301226	-2.011120	-0.274831	-0.318215	-1.405450	0.013429	0.781729	0.056996	0.620863
11272		8.574489	-1.336199	-1.330654	-0.553828	-0.309945	-1.347161	0.019914	0.782185	0.060497	0.619783
11273		8.839790	-1.681504	-1.190143	-0.826687	-0.277966	-1.288533	0.027242	0.782494	0.062899	0.618874
11274		9.629701	-1.891274	-1.121320	-0.894018	-0.243716	-1.234845	0.034670	0.782658	0.064893	0.618089
11275		9.867332	-2.324096	-1.910492	-0.860788	-0.253834	-1.176633	0.041767	0.782840	0.066746	0.617221
11276		10.390793	-2.908022	-2.124283	-0.743489	-0.228664	-1.128323	0.048267	0.782945	0.068791	0.616389
11277		10.739851	-3.675299	-1.755529	-0.617474	-0.191517	-1.077991	0.054080	0.782955	0.071022	0.615640
11278		10.760852	-4.367659	-0.728297	-0.493245	-0.093165	-1.024734	0.059227	0.782688	0.073463	0.615220
11279		9.814698	-4.856588	-0.146686	-0.350679	-0.040339	-0.974309	0.063610	0.782302	0.076145	0.614947
11280		8.648614	-4.957249	-0.214479	-0.099789	-0.108514	-0.889768	0.066814	0.782219	0.079276	0.614317
11281		8.451769	-4.471022	-0.743489	0.063177	-0.233561	-0.778403	0.069064	0.782613	0.082428	0.613150
11282		9.395611	-3.990899	-1.383035	0.041159	-0.291769	-0.673689	0.071133	0.783212	0.085107	0.611781
11283		10.077799	-4.042267	-1.874645	0.047734	-0.228640	-0.620685	0.072947	0.783641	0.087595	0.610666
11284		9.835681	-3.976269	-2.244585	0.223800	-0.102346	-0.575121	0.073907	0.783759	0.090506	0.609973
11285		9.605227	-3.552971	-2.161731	0.362680	-0.009165	-0.489241	0.073975	0.783686	0.093514	0.609605
11286		9.534835	-3.585687	-1.870761	0.292936	0.037807	-0.334291	0.073852	0.783517	0.095740	0.609492
11287		9.952582	-4.088500	-1.562055	-0.037164	0.024060	-0.116235	0.074307	0.783390	0.096069	0.609548
11288		11.220271	-4.803163	-1.422012	-0.564785	0.039157	0.195508	0.075890	0.783185	0.093586	0.610003
11289		11.831682	-6.286503	-1.316377	-1.153506	0.094988	0.565515	0.078546	0.782770	0.087831	0.611054
11290		11.930011	-8.351487	-0.785441	-1.790650	0.103003	0.905121	0.082668	0.782194	0.078810	0.612477
11291		12.234156	-10.602343	0.125791	-2.339398	0.185922	1.248546	0.087758	0.781193	0.066738	0.614476
11292		11.701244	-9.995321	2.592244	-2.021570	0.662033	1.568572	0.090472	0.778858	0.054604	0.618234
11293		11.242664	-9.538733	0.173203	-1.721992	0.757470	1.950886	0.090728	0.776357	0.041914	0.622319
11294		12.540903	-9.484666	0.442401	-1.491286	1.008215	2.395002	0.088673	0.773141	0.028358	0.627364
11295		12.852251	-8.303808	1.242124	-0.969936	1.238575	2.835663	0.083086	0.769341	0.014798	0.633240
11296		13.716877	-6.889860	1.121068	-0.420745	1.355879	3.220156	0.074199	0.765227	0.001603	0.639468
11297		14.871663	-5.469272	0.176890	0.391399	1.493280	3.554338	0.061043	0.760739	-0.010245	0.646100
11298		15.391670	-2.604394	-0.480924	1.242325	1.525722	3.799671	0.043921	0.756093	-0.020183	0.652677
11299		17.403676	2.500603	1.673528	1.331153	1.460261	3.881987	0.026097	0.751321	-0.030188	0.658729
11300		19.397056	7.272478	3.382280	0.420442	1.258991	3.808210	0.011958	0.746771	-0.042897	0.663588
11301		20.426541	8.315729	1.714013	-0.558382	0.908124	3.656456	0.001824	0.743054	-0.058352	0.666680
11302		20.894406	6.126681	-2.784541	-1.096803	0.668235	3.692923	-0.006432	0.739854	-0.075669	0.668467
11303		20.470517	0.780404	-6.346076	-2.003984	0.818892	3.752115	-0.011577	0.735834	-0.096294	0.670180
11304		19.375837	-1.161598	-4.334465	-2.723704	1.033670	3.679395	-0.013689	0.730796	-0.119023	0.672000
11305		15.440259	-2.465270	-2.126640	-3.307497	1.089928	3.407000	-0.012784	0.725324	-0.142730	0.673327
11306		13.999999	-2.073618	-1.468595	-2.962502	0.776033	3.024419	-0.011947	0.720766	-0.163729	0.673458
11307		12.897606	-0.002439	-1.349245	-2.162168	0.516824	2.736787	-0.013240	0.716975	-0.180928	0.673080
11308		12.044863	2.148658	-1.255159	-1.608848	0.373725	2.501270	-0.015748	0.713648	-0.195298	0.672545
11309		11.403453	1.705609	-0.964622	-1.002517	0.242066	2.317091	-0.019950	0.710749	-0.206944	0.672021
11310		10.632758	0.362081	-1.006652	-0.273263	0.244672	2.230840	-0.026360	0.707762	-0.215741	0.672186
11311		9.479935	0.702958	0.413945	0.867240	0.307232	2.198971	-0.036653	0.704355	-0.220581	0.673710
11312		8.520035	1.352932	1.993509	2.137263	0.230275	2.143862	-0.051206	0.700921	-0.220809	0.676263
11313		7.596807	3.014475	2.517580	2.739102	0.147407	1.994362	-0.067462	0.697586	-0.218419	0.679055
11314		7.111860	2.164079	1.571005	2.778269	0.055783	1.788777	-0.083166	0.694576	-0.215048	0.681471
11315		6.610814	1.084315	-0.217089	2.636593	0.029685	1.590740	-0.097753	0.691724	-0.211454	0.683557
11316		6.248184	0.969265	-1.752627	2.509894	0.027510	1.412682	-0.111218	0.688974	-0.207604	0.685453
11317		4.771844	1.955129	-2.626682	2.138489	0.001538	1.158145	-0.122584	0.686631	-0.204155	0.686900
11318		4.674801	3.139616	-3.183646	1.711872	-0.105986	0.892424	-0.131612	0.685100	-0.201151	0.687645
11319		4.550172	4.305164	-3.388279	1.252813	-0.109749	0.619110	-0.138167	0.684078	-0.198832	0.688050
11320		4.041634	5.320186	-3.318282	0.756696	-0.127166	0.331677	-0.142005	0.683710	-0.197212	0.688101
11321		3.687713	6.218305	-2.822909	0.377108	-0.215965	0.042761	-0.143669	0.684167	-0.195896	0.687677
11322		3.752091	6.697172	-2.729304	0.153210	-0.327205	-0.214977	-0.143736	0.685409	-0.194367	0.686860
11323		3.827302	7.215121	-2.756507	-0.026194	-0.454306	-0.422421	-0.142620	0.687395	-0.192686	0.685580
11324		3.496555	7.897532	-2.615128	-0.161045	-0.544704	-0.584022	-0.140526	0.689931	-0.190822	0.683984
11325		3.564117	7.365017	-2.589786	-0.449326	-0.707792	-0.707326	-0.137191	0.693317	-0.189428	0.681621
11326		3.498096	5.896966	-2.805486	-0.515357	-0.878310	-0.882517	-0.133138	0.697466	-0.187501	0.678719
11327		3.843168	3.846326	-1.766548	0.055522	-1.088694	-1.144579	-0.130358	0.702147	-0.182574	0.675768
11328		5.151545	1.851175	1.620326	1.297119	-1.073068	-1.443335	-0.130822	0.706167	-0.172349	0.674173
11329		5.534099	0.666298	4.926775	1.992539	-0.880148	-1.639068	-0.132901	0.709131	-0.159207	0.673886
11330		5.848163	-2.401619	3.921005	1.417245	-0.954080	-1.690883	-0.132790	0.712645	-0.147741	0.672812
11331		7.432750	-6.744902	2.755031	0.893644	-1.009482	-1.694819	-0.130858	0.716596	-0.137998	0.671061
11332		10.254846	-9.346305	2.762767	0.409029	-0.643317	-1.657787	-0.127067	0.719535	-0.130260	0.670191
11333		12.208542	-13.149377	1.087658	-0.791365	-0.482221	-1.588881	-0.119150	0.722582	-0.126950	0.669001
11334		14.675409	-17.624061	-1.607770	-1.661951	-0.843045	-1.313263	-0.109214	0.727122	-0.127292	0.665704
11335		20.200818	-21.500843	-3.140334	-1.337191	-1.003351	-0.878736	-0.102028	0.731687	-0.128015	0.661692
11336		22.790710	-21.729941	-0.573734	-0.207591	-0.277707	-0.234102	-0.100647	0.732870	-0.127686	0.660657
11337		18.964781	-16.667793	2.165855	-0.010028	0.101011	0.330173	-0.101698	0.732364	-0.128990	0.660805
11338		14.666082	-9.977232	1.691962	0.075124	-0.106571	0.632152	-0.104147	0.732328	-0.130952	0.660076
11339		10.424669	-4.030380	-0.204449	-0.242720	-0.316819	0.749212	-0.106003	0.733063	-0.134304	0.658289
11340		6.220658	0.313914	-1.261257	-0.910372	-0.580364	0.673122	-0.105288	0.735053	-0.139405	0.655117
11341		3.414847	3.679571	-0.871344	-1.434306	-0.851123	0.369516	-0.101867	0.738348	-0.144998	0.650723
11342		4.560430	3.385558	1.350200	-1.658350	-1.051682	-0.139341	-0.096023	0.742697	-0.149309	0.645669
11343		8.837388	0.541099	6.085159	-1.336895	-0.788498	-0.620047	-0.089645	0.746300	-0.150967	0.642035
11344		13.078232	-1.213046	10.881213	-1.513583	-0.216912	-0.763263	-0.081700	0.748193	-0.152927	0.640426
11345		16.336983	-8.094464	-2.762420	-2.264098	0.097530	-0.541161	-0.071508	0.749130	-0.158300	0.639244
11346		18.791822	-14.535563	-19.071383	-1.265092	-0.212401	-0.168176	-0.066412	0.750384	-0.161655	0.637480
11347		18.379846	-8.979019	-16.448117	1.087125	-0.348240	0.171450	-0.071319	0.751019	-0.158663	0.636954
11348		13.127829	1.967348	-1.838514	3.424154	0.770572	0.340177	-0.084601	0.747013	-0.149199	0.642304
11349		4.424067	15.155412	7.059796	2.567656	0.339406	0.139167	-0.094373	0.744707	-0.141553	0.645344
11350		3.180890	18.075972	1.749771	0.521838	-0.354431	-0.318207	-0.095485	0.745836	-0.138471	0.644544
11351		4.160682	13.629597	-2.167922	-1.386866	-0.628303	-0.925160	-0.087753	0.749094	-0.139232	0.641695
11352		8.882160	5.800763	-4.340297	-2.333964	-0.840939	-1.417194	-0.074987	0.753660	-0.141089	0.637548
11353		13.868202	3.590618	-2.649174	-1.912012	-0.661921	-1.557187	-0.063244	0.757446	-0.141135	0.634316
11354		15.790702	3.722809	-1.261658	-1.227835	-0.243704	-1.569752	-0.053728	0.759601	-0.139068	0.633072
11355		14.868717	4.640047	-0.221288	-1.186634	0.094558	-1.657286	-0.043888	0.760644	-0.136654	0.633103
11356		12.746549	4.181037	0.134532	-1.211203	0.243618	-1.653162	-0.033850	0.761139	-0.134351	0.633617
11357		11.555254	4.404326	-0.683458	-1.587100	0.258958	-1.572770	-0.022653	0.761506	-0.133552	0.633845
11358		10.458519	-0.193432	-3.795682	-1.597208	0.304498	-1.582395	-0.011341	0.761641	-0.132732	0.634158
11359		9.790343	-1.259493	-5.359644	-1.744416	0.223594	-1.651897	0.000692	0.761976	-0.132100	0.633989
11360		8.791696	-2.180435	-4.156618	-1.506389	0.174737	-1.744863	0.012106	0.762421	-0.130324	0.633707
11361		8.715735	-1.675858	-4.770308	-1.749810	-0.087675	-1.796867	0.024441	0.763602	-0.129116	0.632173
11362		8.011819	-0.837618	-5.843815	-1.370833	-0.201777	-1.821637	0.035360	0.765100	-0.126583	0.630356
11363		9.423151	-0.901766	-4.543425	-0.979169	-0.256985	-1.809853	0.044708	0.766747	-0.122845	0.628498
11364		9.613848	-0.981106	-3.028059	-0.722123	-0.165419	-1.799286	0.053102	0.768079	-0.118296	0.627089
11365		9.274974	-1.486047	-1.567629	-0.380912	-0.025585	-1.769921	0.060159	0.768983	-0.112749	0.626366
11366		8.906105	-1.163937	-1.436486	-0.089864	0.048838	-1.763478	0.066130	0.769674	-0.106270	0.626047
11367		7.799859	-1.470591	-1.811148	0.082886	0.032620	-1.717674	0.071270	0.770397	-0.099425	0.625718
11368		8.675346	-0.950492	-2.661910	0.333241	-0.073923	-1.700960	0.075361	0.771478	-0.091865	0.625063
11369		9.127743	1.379976	-2.835965	0.439767	-0.124302	-1.672487	0.078914	0.772690	-0.084096	0.624220
11370		8.659720	-0.161098	-3.248205	0.355065	-0.170346	-1.668975	0.082772	0.773951	-0.076606	0.623122
11371		8.946285	-1.123898	-2.756361	0.317599	-0.290962	-1.681720	0.086757	0.775522	-0.069230	0.621486
11372		9.258303	-2.780970	-2.222859	0.049130	-0.303802	-1.714610	0.091881	0.776963	-0.062560	0.619655
11373		9.180630	-4.267411	-1.214724	-0.190630	-0.341660	-1.673117	0.097768	0.778347	-0.056823	0.617567
11374		8.485772	-3.014276	-0.536383	-0.420188	-0.348260	-1.586159	0.104276	0.779558	-0.052127	0.615385
11375		8.280376	-2.224306	-0.478864	-0.673730	-0.308060	-1.505975	0.111497	0.780446	-0.048522	0.613284
11376		8.777786	-2.838409	-0.365882	-0.895491	-0.271974	-1.440578	0.119392	0.781027	-0.045826	0.611263
11377		9.181143	-2.988413	-0.493665	-0.956933	-0.260020	-1.313613	0.127104	0.781462	-0.043818	0.609296
11378		9.449438	-3.312210	-1.402900	-0.950126	-0.254808	-1.160084	0.134329	0.781809	-0.042367	0.607400
11379		9.970442	-3.671130	-2.123405	-0.668498	-0.187696	-1.051482	0.140107	0.782091	-0.040446	0.605861
11380		10.609117	-4.106008	-1.726631	-0.411375	-0.084076	-1.007104	0.144785	0.782203	-0.037829	0.604785
11381		11.056769	-4.132090	-1.001068	-0.229035	0.050048	-1.006490	0.148737	0.782023	-0.034587	0.604253
11382		10.384402	-4.060272	-0.606747	-0.079460	0.099440	-0.975832	0.152046	0.781778	-0.030955	0.603944
11383		8.931271	-3.934100	-0.505658	0.095877	0.027123	-0.925394	0.154475	0.781865	-0.027053	0.603401
11384		8.596479	-3.733649	-0.601735	0.181070	-0.137072	-0.844754	0.156346	0.782489	-0.023298	0.602265
11385		9.177693	-3.570196	-1.015597	0.125837	-0.217767	-0.754766	0.158112	0.783298	-0.020143	0.600866
11386		9.720299	-3.853220	-1.400549	0.062825	-0.196179	-0.703537	0.160003	0.783976	-0.017339	0.599567
11387		9.947445	-4.155692	-1.383551	0.132511	-0.092021	-0.681277	0.161515	0.784389	-0.014363	0.598699
11388		9.685019	-4.416187	-1.178937	0.290717	0.036979	-0.598866	0.162202	0.784532	-0.011107	0.598396
11389		9.333420	-4.735938	-1.290183	0.447610	0.093666	-0.455173	0.161794	0.784627	-0.007927	0.598432
11390		9.204503	-4.870350	-1.757926	0.290460	0.119669	-0.225870	0.161349	0.784516	-0.006071	0.598719
11391		10.797452	-6.132810	-1.871383	-0.100822	0.085384	0.101013	0.161386	0.784203	-0.006736	0.599112
11392		12.795680	-7.675145	-1.772576	-0.605706	0.160034	0.554014	0.162065	0.783265	-0.010614	0.600099
11393		12.788979	-10.331465	-1.220542	-1.352259	0.236466	0.984593	0.164272	0.781465	-0.018422	0.601654
11394		12.667677	-11.786203	0.901521	-1.453302	0.474580	1.382706	0.165712	0.778784	-0.027871	0.604366
11395		10.642059	-10.039474	0.048634	-0.997927	0.715964	1.718787	0.164293	0.775643	-0.037093	0.608284
11396		12.204847	-8.558828	-1.858822	-0.947683	0.838135	2.153961	0.161405	0.772016	-0.047700	0.612914
11397		13.700210	-7.539154	-0.693553	-0.782487	1.113972	2.634455	0.156332	0.767449	-0.059486	0.618906
11398		15.419844	-6.606569	-0.233081	-0.281797	1.373572	3.100921	0.147991	0.762168	-0.071237	0.626198
11399		16.029928	-4.919645	0.390993	0.272648	1.562512	3.470564	0.136302	0.756347	-0.082546	0.634466
11400		16.003444	-2.697839	0.479532	0.917340	1.569571	3.697187	0.121501	0.750573	-0.092546	0.642894
11401		16.732888	1.686502	1.740226	1.208595	1.383287	3.797947	0.105070	0.745202	-0.102097	0.650547
11402		17.304243	6.362131	3.508221	0.536665	1.224358	3.743016	0.091279	0.739713	-0.113620	0.656949
11403		18.600911	8.801635	2.979254	-0.584090	0.903374	3.631625	0.081686	0.734527	-0.128594	0.661257
11404		19.500439	6.495623	-0.047441	-1.283460	0.513045	3.582835	0.074637	0.730123	-0.145750	0.663406
11405		22.031556	5.130200	-4.274800	-1.863608	0.575005	3.634624	0.069444	0.724950	-0.165015	0.665128
11406		18.614375	-1.647562	-4.310899	-3.002825	0.891736	3.631127	0.068643	0.717974	-0.187869	0.666714
11407		16.902659	-3.022000	-2.175859	-3.125558	0.959011	3.484208	0.068718	0.710430	-0.210538	0.668012
11408		14.483047	-4.148008	-0.944412	-2.998873	0.823844	3.259685	0.069016	0.703240	-0.231861	0.668529
11409		13.819248	-1.976490	-0.450376	-1.905368	0.638121	2.918410	0.066352	0.697131	-0.248312	0.669288
11410		13.859068	1.642206	-0.922156	-1.276543	0.553145	2.735505	0.062098	0.691564	-0.261907	0.670290
11411		13.334634	3.537807	-1.062141	-0.805588	0.455746	2.493330	0.056846	0.686619	-0.273099	0.671371
11412		11.992127	1.939893	-1.498551	-0.656569	0.486608	2.425625	0.051424	0.681601	-0.283451	0.672630
11413		10.679832	-0.282184	-0.433122	0.493673	0.506347	2.332949	0.042383	0.676831	-0.289586	0.675458
11414		9.392069	3.257461	1.734461	2.241465	0.498947	2.284748	0.027699	0.672421	-0.289496	0.680643
11415		8.304037	3.203597	1.925148	2.698645	0.358092	2.131922	0.011754	0.668569	-0.287301	0.685810
11416		8.000679	1.125407	1.161134	3.073627	0.217631	2.002867	-0.005113	0.665209	-0.283245	0.690828
11417		7.300256	2.102570	0.476927	2.988249	0.181565	1.831695	-0.021205	0.661972	-0.278868	0.695396
11418		6.419440	1.840855	-1.233092	2.599486	0.176506	1.637861	-0.035278	0.658885	-0.275103	0.699246
11419		5.098892	1.910342	-2.605258	2.183252	0.166656	1.397776	-0.047203	0.656060	-0.272003	0.702404
11420		4.250004	2.659491	-3.598901	1.825872	0.121545	1.134945	-0.057024	0.653742	-0.269225	0.704902
11421		4.141208	3.775806	-3.576262	1.375610	-0.018296	0.851846	-0.064601	0.652327	-0.267098	0.706368
11422		4.321276	4.870109	-3.564876	1.006265	-0.165041	0.556338	-0.070054	0.651910	-0.265226	0.706938
11423		3.936190	5.992379	-3.581478	0.824874	-0.218490	0.237701	-0.073891	0.652113	-0.262981	0.707199
11424		3.459036	7.295222	-3.352018	0.661163	-0.263904	-0.075392	-0.076084	0.652931	-0.260253	0.707220
11425		2.588383	8.501122	-3.355835	0.453452	-0.353408	-0.334930	-0.076823	0.654447	-0.257416	0.706778
11426		1.892753	9.573252	-3.367713	0.217300	-0.480232	-0.523307	-0.076234	0.656734	-0.254722	0.705695
11427		1.364289	9.730913	-3.650938	-0.192659	-0.665853	-0.690039	-0.073969	0.660015	-0.252884	0.703533
11428		1.654665	8.301609	-3.564228	-0.364081	-0.965330	-0.907576	-0.070690	0.664662	-0.250780	0.700241
11429		2.152481	6.287523	-2.444871	0.119600	-1.194774	-1.242792	-0.068103	0.670307	-0.245778	0.696882
11430		3.156642	4.223351	0.384222	1.366852	-1.060491	-1.595508	-0.068221	0.675411	-0.235230	0.695580
11431		3.264292	2.451159	3.913912	2.134735	-0.821712	-1.796653	-0.069941	0.679531	-0.221390	0.695940
11432		3.884779	-0.002735	3.840877	1.395943	-1.053331	-1.853133	-0.069183	0.684644	-0.209799	0.694594
11433		7.483596	-4.464687	4.131665	0.440253	-1.021683	-1.841437	-0.065202	0.689858	-0.201595	0.692245
11434		11.292528	-10.204398	6.829806	-0.337436	-0.296823	-1.900326	-0.057651	0.692782	-0.196154	0.691559
11435		16.255835	-19.020428	9.515225	-1.355491	-0.036976	-1.839606	-0.046598	0.694945	-0.194559	0.690671
11436		21.100863	-30.295246	4.749487	-2.103116	-0.756627	-1.146777	-0.036019	0.699053	-0.197692	0.686255
11437		31.144651	-36.543795	-8.867519	-0.884912	-1.417771	-0.064880	-0.034070	0.704140	-0.200186	0.680405
11438		26.461317	-19.125097	-1.870359	1.174945	0.149525	0.778798	-0.040718	0.702717	-0.198885	0.681892
11439		17.434143	-9.142249	0.479934	0.281622	0.193826	1.098013	-0.045370	0.700973	-0.201808	0.682533
11440		10.898992	-4.443561	-0.561782	-0.107844	0.025514	1.192349	-0.049100	0.699795	-0.206307	0.682139
11441		3.986514	0.908297	1.549743	-0.380738	-0.054773	1.090910	-0.051662	0.699014	-0.211399	0.681191
11442		-1.558495	6.039030	0.948812	-1.435283	-0.532326	0.843864	-0.050133	0.700354	-0.219058	0.677499
11443		-1.197108	5.995001	0.947344	-2.617671	-1.420372	0.096992	-0.042888	0.705655	-0.227889	0.669536
11444		6.593912	2.415400	4.787932	-2.368103	-1.647727	-0.738950	-0.033857	0.712430	-0.232809	0.661134
11445		14.893248	1.577292	-0.619885	-1.920886	-0.333275	-0.901240	-0.024458	0.714802	-0.235967	0.657860
11446		16.968381	-5.981476	-2.600173	-2.431678	0.423418	-0.733419	-0.012915	0.714454	-0.241498	0.656557
11447		18.753866	-15.819969	-15.133751	-0.934071	-0.264969	-0.488577	-0.008324	0.715938	-0.242842	0.654516
11448		21.307087	-10.483464	-9.643997	2.084249	0.013883	-0.035676	-0.015588	0.715854	-0.235804	0.657043
11449		15.001571	1.090714	3.841091	2.643308	0.737133	0.327124	-0.025289	0.712819	-0.228303	0.662667
11450		7.172997	12.413092	3.085863	2.770309	0.254153	0.161758	-0.035348	0.711430	-0.219622	0.666621
11451		3.274874	18.208299	0.166939	1.402171	-0.158126	-0.435044	-0.039021	0.712169	-0.213340	0.667667
11452		4.592842	12.026331	-2.995977	-1.135649	-0.899643	-1.207314	-0.031817	0.716603	-0.212653	0.663510
11453		10.093667	8.119731	-2.864013	-1.606692	-0.907956	-1.605931	-0.021626	0.721441	-0.212118	0.658833
11454		13.589898	7.410460	-2.943960	-1.493715	-0.586745	-1.742689	-0.011033	0.725243	-0.210728	0.655358
11455		14.366619	6.656110	-1.746584	-1.462382	-0.193972	-1.845680	0.000164	0.727744	-0.208894	0.653262
11456		14.457183	3.036833	0.447834	-1.471382	-0.028628	-1.910040	0.011785	0.729666	-0.206830	0.651667
11457		13.408450	1.317192	0.319989	-1.336886	0.106791	-1.834687	0.022793	0.730977	-0.204573	0.650618
11458		11.559251	0.180992	-2.254722	-1.412248	0.175828	-1.789859	0.033995	0.731917	-0.202692	0.649659
11459		10.402648	-1.043052	-4.162508	-1.209591	0.198769	-1.810063	0.044543	0.732744	-0.200047	0.648910
11460		9.521720	-0.733048	-4.538267	-1.025699	0.141751	-1.880117	0.054599	0.733781	-0.196528	0.648044
11461		9.081234	-0.720850	-4.419705	-0.999991	-0.007870	-1.926690	0.064568	0.735270	-0.192764	0.646569
11462		9.438065	-0.918334	-3.967007	-0.944590	-0.137739	-1.952993	0.074299	0.737137	-0.188731	0.644585
11463		10.577363	-0.868663	-4.061235	-0.842310	-0.212428	-1.949168	0.083568	0.739197	-0.184382	0.642345
11464		6.864332	-2.113432	-3.228037	-0.632168	-0.108001	-1.951089	0.092155	0.740928	-0.179285	0.640617
11465		8.202296	-0.576176	-1.685572	-0.369078	-0.210808	-1.924680	0.099591	0.743020	-0.173459	0.638682
11466		7.771601	-0.338100	-1.180658	-0.329454	-0.192181	-1.860050	0.106680	0.744947	-0.167716	0.636823
11467		9.337919	-1.274168	-1.559215	-0.194350	-0.193184	-1.848436	0.113220	0.746879	-0.161570	0.635018
11468		8.132014	0.127961	-2.197023	0.269548	-0.087866	-1.822233	0.118027	0.748654	-0.153963	0.633942
11469		8.945326	-1.546175	-2.731972	0.389235	-0.171666	-1.784504	0.122196	0.750680	-0.146147	0.632604
11470		8.950109	-1.983809	-2.680556	0.668951	-0.177314	-1.721340	0.125110	0.752788	-0.137661	0.631433
11471		8.702525	-0.903509	-2.534052	0.718011	-0.217114	-1.700789	0.127733	0.754979	-0.129109	0.630096
11472		8.617408	-1.819892	-2.202691	0.491084	-0.286050	-1.737067	0.131277	0.757195	-0.121167	0.628284
11473		8.273092	-3.169088	-1.498924	0.311273	-0.367730	-1.732697	0.135420	0.759489	-0.113855	0.626000
11474		8.472579	-2.881483	-0.578608	-0.026203	-0.443104	-1.662908	0.140571	0.761690	-0.107907	0.623237
