// General information: 
//  MT Manager version: 2019.1.1 
//  XDA version: 2019.1.1 build 3010 rev 85319 built on 2019-03-01
// Device information: 
//  DeviceId: 00B485FC
//  ProductCode: MTW2-3A7G6
//  Firmware Version: 4.6.0
//  Hardware Version: 2.0.0
// Device settings: 
//  Filter Profile: human(46.1)
//  Option Flags: Orientation Smoother Disabled, AHS Disabled, ICC Disabled
// Coordinate system: ENU
PacketCounter	SampleTimeFine	Acc_X	Acc_Y	Acc_Z	Gyr_X	Gyr_Y	Gyr_Z	Quat_q0	Quat_q1	Quat_q2	Quat_q3
10291		4.841888	1.112737	8.403701	-0.000799	0.021950	-0.009943	-0.958843	-0.073951	0.256440	-0.096901
10292		4.846537	1.111219	8.428244	-0.003773	0.023557	-0.009471	-0.958870	-0.073933	0.256354	-0.096879
10293		4.837654	1.113227	8.406074	-0.002166	0.026601	-0.009594	-0.958900	-0.073922	0.256252	-0.096861
10294		4.816942	1.088528	8.436146	-0.000606	0.028106	-0.009761	-0.958931	-0.073917	0.256144	-0.096844
10295		4.808006	1.090671	8.413983	-0.002262	0.023521	-0.009684	-0.958957	-0.073907	0.256056	-0.096824
10296		4.859325	1.087228	8.425141	0.002368	0.026498	-0.010232	-0.958985	-0.073918	0.255953	-0.096808
10297		4.853176	1.138234	8.405974	-0.000511	0.031183	-0.009671	-0.959020	-0.073912	0.255828	-0.096793
10298		4.818251	1.161479	8.469269	-0.002185	0.032811	-0.010924	-0.959059	-0.073899	0.255696	-0.096771
10299		4.799089	1.116523	8.421170	-0.006510	0.032854	-0.008777	-0.959098	-0.073862	0.255566	-0.096755
10300		4.824841	1.089316	8.438065	-0.005256	0.031338	-0.010545	-0.959135	-0.073834	0.255444	-0.096730
10301		4.836881	1.110087	8.487901	-0.005095	0.029741	-0.009079	-0.959170	-0.073806	0.255329	-0.096712
10302		4.819538	1.089594	8.441059	-0.000768	0.029697	-0.011224	-0.959204	-0.073802	0.255211	-0.096689
10303		4.810312	1.091796	8.419071	-0.002280	0.029730	-0.011013	-0.959238	-0.073790	0.255094	-0.096665
10304		4.847805	1.092034	8.383832	0.000468	0.034394	-0.014320	-0.959279	-0.073792	0.254952	-0.096630
10305		4.840713	1.143082	8.365215	-0.002226	0.045232	-0.013579	-0.959335	-0.073775	0.254759	-0.096602
10306		4.819543	1.142487	8.397763	-0.009758	0.053146	-0.013811	-0.959403	-0.073719	0.254533	-0.096567
10307		4.769485	1.168808	8.415144	-0.006321	0.052965	-0.011208	-0.959468	-0.073675	0.254306	-0.096548
10308		4.771452	1.166850	8.441211	-0.009138	0.052971	-0.009277	-0.959533	-0.073617	0.254083	-0.096536
10309		4.797589	1.064495	8.478291	-0.010491	0.051406	-0.007602	-0.959596	-0.073550	0.253867	-0.096529
10310		4.818147	1.087463	8.475669	-0.007926	0.049914	-0.011088	-0.959657	-0.073500	0.253657	-0.096508
10311		4.810902	1.038727	8.475209	-0.008384	0.048487	-0.014156	-0.959719	-0.073453	0.253451	-0.096471
10312		4.817061	1.041585	8.424120	-0.002495	0.049952	-0.016453	-0.959781	-0.073436	0.253235	-0.096430
10313		4.796867	1.065808	8.458193	-0.001003	0.056130	-0.017987	-0.959852	-0.073425	0.252987	-0.096387
10314		4.808799	1.067432	8.430945	-0.001321	0.059318	-0.020918	-0.959928	-0.073413	0.252724	-0.096330
10315		4.806459	1.117282	8.436705	0.004523	0.059245	-0.023256	-0.960003	-0.073433	0.252455	-0.096270
10316		4.679999	1.173996	8.451693	0.000280	0.062357	-0.021032	-0.960082	-0.073429	0.252177	-0.096217
10317		4.756509	1.144076	8.480526	0.000437	0.060759	-0.019566	-0.960158	-0.073424	0.251905	-0.096170
10318		4.697777	1.148623	8.472901	-0.002228	0.059168	-0.016178	-0.960232	-0.073404	0.251644	-0.096136
10319		4.695634	1.197752	8.478540	-0.003674	0.054525	-0.014599	-0.960299	-0.073376	0.251407	-0.096105
10320		4.740284	1.121187	8.487148	-0.006476	0.048319	-0.011352	-0.960358	-0.073335	0.251203	-0.096084
10321		4.734573	1.096985	8.488056	-0.003406	0.049793	-0.011713	-0.960418	-0.073308	0.250989	-0.096065
10322		4.756572	1.144930	8.486945	-0.003406	0.049792	-0.011713	-0.960477	-0.073281	0.250777	-0.096046
10323		4.755477	1.094639	8.510070	-0.006455	0.056060	-0.012632	-0.960546	-0.073237	0.250534	-0.096022
10324		4.737856	1.098541	8.465770	-0.002318	0.056079	-0.016264	-0.960615	-0.073219	0.250288	-0.095986
10325		4.734331	1.123375	8.469938	-0.003831	0.056108	-0.016061	-0.960685	-0.073191	0.250042	-0.095948
10326		4.687032	1.099572	8.507588	-0.005412	0.060806	-0.017231	-0.960762	-0.073156	0.249775	-0.095906
10327		4.648580	1.153341	8.472627	0.000862	0.054418	-0.015200	-0.960827	-0.073151	0.249535	-0.095877
10328		4.650216	1.152258	8.498604	-0.000739	0.051370	-0.015092	-0.960889	-0.073141	0.249312	-0.095847
10329		4.668137	1.127463	8.493015	-0.001833	0.045078	-0.010541	-0.960941	-0.073122	0.249121	-0.095833
10330		4.647092	1.127188	8.524885	0.002378	0.040430	-0.012795	-0.960987	-0.073130	0.248950	-0.095812
10331		4.689249	1.101599	8.512583	-0.000451	0.040432	-0.010882	-0.961033	-0.073121	0.248780	-0.095796
10332		4.692061	1.100445	8.537928	0.002291	0.037352	-0.012888	-0.961075	-0.073129	0.248624	-0.095772
10333		4.699790	1.103907	8.486265	0.002093	0.037408	-0.014400	-0.961119	-0.073138	0.248466	-0.095740
10334		4.702693	1.103182	8.511508	0.006633	0.037318	-0.014998	-0.961161	-0.073170	0.248306	-0.095711
10335		4.693242	1.106192	8.489590	0.004837	0.034327	-0.016405	-0.961200	-0.073196	0.248160	-0.095671
10336		4.718212	1.080581	8.507079	0.007293	0.042180	-0.022618	-0.961252	-0.073237	0.247973	-0.095609
10337		4.745446	1.103898	8.527763	0.007335	0.043716	-0.022571	-0.961305	-0.073277	0.247778	-0.095547
10338		4.705362	1.110065	8.489011	0.007419	0.046789	-0.022478	-0.961362	-0.073317	0.247570	-0.095487
10339		4.662858	1.160587	8.530147	0.010641	0.046674	-0.021360	-0.961417	-0.073370	0.247360	-0.095437
10340		4.680867	1.137066	8.524498	0.005905	0.046814	-0.022280	-0.961474	-0.073402	0.247152	-0.095377
10341		4.676492	1.138544	8.526702	0.004475	0.049916	-0.021990	-0.961535	-0.073425	0.246928	-0.095318
10342		4.631107	1.140033	8.564924	0.006099	0.046755	-0.020766	-0.961591	-0.073456	0.246721	-0.095265
10343		4.639477	1.168198	8.515186	0.000043	0.046867	-0.019981	-0.961649	-0.073457	0.246516	-0.095209
10344		4.641519	1.167368	8.540853	-0.000040	0.043791	-0.020074	-0.961703	-0.073459	0.246326	-0.095151
10345		4.654918	1.169019	8.513191	-0.000892	0.046725	-0.015246	-0.961759	-0.073450	0.246124	-0.095117
10346		4.672987	1.144392	8.507757	-0.002558	0.048344	-0.016516	-0.961818	-0.073434	0.245915	-0.095075
10347		4.614004	1.123949	8.497410	-0.007253	0.050018	-0.017398	-0.961881	-0.073395	0.245699	-0.095025
10348		4.662874	1.120875	8.511006	-0.001005	0.049850	-0.016663	-0.961941	-0.073385	0.245482	-0.094984
10349		4.639544	1.096330	8.541640	-0.002862	0.051524	-0.019448	-0.962006	-0.073368	0.245256	-0.094930
10350		4.652344	1.098087	8.514381	0.001760	0.054514	-0.019935	-0.962072	-0.073374	0.245014	-0.094879
10351		4.626258	1.148820	8.526058	0.002972	0.057669	-0.023061	-0.962143	-0.073386	0.244754	-0.094817
10352		4.615197	1.151742	8.505032	0.001949	0.054454	-0.018421	-0.962208	-0.073391	0.244513	-0.094774
10353		4.540730	1.179744	8.527302	0.003273	0.054480	-0.020127	-0.962274	-0.073403	0.244269	-0.094724
10354		4.586837	1.128670	8.538085	0.002209	0.049729	-0.015535	-0.962332	-0.073408	0.244052	-0.094693
10355		4.588663	1.128081	8.563776	0.006214	0.043611	-0.019323	-0.962383	-0.073439	0.243859	-0.094646
10356		4.557657	1.180567	8.551116	0.003524	0.042016	-0.015960	-0.962431	-0.073455	0.243678	-0.094611
10357		4.603532	1.105123	8.559971	0.001742	0.039023	-0.017376	-0.962477	-0.073464	0.243511	-0.094565
10358		4.600065	1.106210	8.561695	0.004732	0.037432	-0.017804	-0.962520	-0.073490	0.243350	-0.094521
10359		4.549589	1.109201	8.575319	0.007832	0.032714	-0.016811	-0.962557	-0.073532	0.243210	-0.094482
10360		4.595033	1.133422	8.566162	0.009197	0.034279	-0.018468	-0.962594	-0.073581	0.243063	-0.094437
10361		4.593327	1.159065	8.569038	0.003398	0.029663	-0.014821	-0.962627	-0.073601	0.242940	-0.094402
10362		4.568239	1.185427	8.577795	0.007716	0.028103	-0.016950	-0.962657	-0.073645	0.242824	-0.094360
10363		4.564524	1.162209	8.577495	0.003883	0.026425	-0.010373	-0.962684	-0.073663	0.242719	-0.094345
10364		4.608127	1.137132	8.565212	0.003360	0.028124	-0.014868	-0.962715	-0.073684	0.242605	-0.094308
10365		4.605604	1.138131	8.566436	0.003134	0.026641	-0.016428	-0.962745	-0.073705	0.242497	-0.094263
10366		4.603069	1.139226	8.567653	0.004687	0.028152	-0.016570	-0.962776	-0.073734	0.242382	-0.094220
10367		4.571960	1.167254	8.552801	0.004762	0.031224	-0.016477	-0.962811	-0.073761	0.242251	-0.094178
10368		4.487690	1.198724	8.526206	0.007679	0.026563	-0.016993	-0.962839	-0.073806	0.242142	-0.094135
10369		4.520912	1.195583	8.568518	0.001879	0.021946	-0.013352	-0.962862	-0.073820	0.242058	-0.094101
10370		4.585002	1.096419	8.545783	-0.000704	0.024960	-0.009855	-0.962888	-0.073817	0.241963	-0.094082
10371		4.550897	1.168145	8.610446	0.002065	0.021891	-0.011837	-0.962910	-0.073830	0.241880	-0.094055
10372		4.565532	1.145517	8.580316	0.003543	0.020330	-0.012071	-0.962930	-0.073852	0.241805	-0.094028
10373		4.557763	1.148084	8.557571	0.003543	0.020329	-0.012071	-0.962951	-0.073874	0.241729	-0.094001
10374		4.562951	1.171472	8.583567	0.002213	0.020300	-0.010370	-0.962970	-0.073887	0.241655	-0.093981
10375		4.565794	1.146014	8.606641	0.000698	0.020324	-0.010183	-0.962990	-0.073893	0.241581	-0.093960
10376		4.569978	1.150960	8.530708	0.002213	0.020299	-0.010370	-0.963010	-0.073906	0.241507	-0.093939
10377		4.544523	1.152396	8.537507	0.002176	0.018763	-0.010416	-0.963028	-0.073920	0.241440	-0.093918
10378		4.526364	1.176504	8.569254	0.003766	0.014075	-0.009228	-0.963038	-0.073943	0.241396	-0.093902
10379		4.553225	1.150358	8.586206	0.002361	0.018708	-0.008902	-0.963055	-0.073956	0.241329	-0.093888
10380		4.522194	1.153411	8.569204	0.002436	0.014046	-0.007527	-0.963066	-0.073971	0.241287	-0.093879
10381		4.551576	1.175859	8.589005	0.002251	0.014099	-0.009041	-0.963077	-0.073986	0.241243	-0.093862
10382		4.544419	1.178070	8.565986	0.000920	0.014069	-0.007340	-0.963088	-0.073993	0.241201	-0.093851
10383		4.564566	1.129172	8.557715	0.003914	0.012485	-0.007759	-0.963097	-0.074015	0.241165	-0.093842
10384		4.570491	1.152380	8.583320	0.002731	0.010866	-0.004591	-0.963102	-0.074029	0.241139	-0.093845
10385		4.536275	1.205820	8.545402	0.003766	0.014074	-0.009227	-0.963113	-0.074052	0.241094	-0.093829
10386		4.532824	1.157820	8.542991	0.004062	0.010895	-0.006291	-0.963118	-0.074075	0.241067	-0.093826
10387		4.567304	1.154370	8.584750	0.005505	0.007799	-0.006569	-0.963120	-0.074106	0.241052	-0.093821
10388		4.567700	1.179416	8.586515	0.003990	0.007823	-0.006383	-0.963122	-0.074130	0.241040	-0.093817
10389		4.561142	1.181553	8.563193	0.001327	0.007763	-0.002984	-0.963123	-0.074137	0.241029	-0.093825
10390		4.535742	1.158239	8.567896	0.001072	0.004745	-0.004590	-0.963121	-0.074146	0.241033	-0.093824
10391		4.564783	1.156258	8.585836	0.003918	0.004750	-0.006475	-0.963120	-0.074171	0.241034	-0.093817
10392		4.541790	1.181698	8.593383	-0.000076	0.004662	-0.001376	-0.963117	-0.074172	0.241041	-0.093829
10393		4.559083	1.182652	8.564138	-0.001703	0.007811	-0.002612	-0.963119	-0.074163	0.241032	-0.093836
10394		4.552687	1.184455	8.540778	0.001255	0.004691	-0.003076	-0.963116	-0.074172	0.241037	-0.093842
10395		4.563902	1.181180	8.588292	-0.001775	0.004738	-0.002705	-0.963115	-0.074165	0.241043	-0.093846
10396		4.587222	1.180236	8.582624	-0.004658	0.003196	-0.000866	-0.963112	-0.074144	0.241059	-0.093856
10397		4.532637	1.158603	8.569490	-0.005806	0.003113	0.002348	-0.963107	-0.074112	0.241077	-0.093880
10398		4.557138	1.181481	8.565335	-0.008984	0.004750	0.001251	-0.963107	-0.074067	0.241089	-0.093895
10399		4.555599	1.156614	8.564154	-0.003107	0.004709	-0.001005	-0.963105	-0.074051	0.241096	-0.093906
10400		4.555360	1.156148	8.564344	-0.005475	0.001470	0.005330	-0.963097	-0.074020	0.241124	-0.093943
10401		4.589319	1.126955	8.604505	-0.007469	0.004726	0.001066	-0.963095	-0.073981	0.241134	-0.093960
10402		4.525421	1.157444	8.546966	-0.003214	0.000101	-0.001144	-0.963088	-0.073967	0.241165	-0.093967
10403		4.536985	1.153860	8.594328	-0.001479	0.001560	0.000232	-0.963081	-0.073960	0.241187	-0.093985
10404		4.532236	1.179767	8.572205	-0.001515	0.000024	0.000185	-0.963072	-0.073954	0.241218	-0.094002
10405		4.554717	1.154468	8.564913	-0.002995	0.001583	0.000417	-0.963066	-0.073940	0.241241	-0.094018
10406		4.584286	1.151738	8.582682	-0.003102	-0.003025	0.000278	-0.963054	-0.073927	0.241287	-0.094032
10407		4.560811	1.152182	8.588495	-0.002883	-0.001542	0.001838	-0.963043	-0.073913	0.241325	-0.094054
10408		4.578728	1.153094	8.558940	0.001148	0.000084	-0.003214	-0.963036	-0.073923	0.241353	-0.094057
10409		4.576368	1.104324	8.556048	-0.004510	0.001607	0.000602	-0.963030	-0.073901	0.241376	-0.094073
10410		4.537128	1.152813	8.594394	0.002409	-0.002958	-0.005006	-0.963019	-0.073922	0.241416	-0.094067
10411		4.555077	1.154082	8.564774	0.001332	0.000030	-0.001700	-0.963010	-0.073931	0.241443	-0.094078
10412		4.543532	1.157775	8.517386	0.002592	-0.003012	-0.003492	-0.962998	-0.073950	0.241485	-0.094080
10413		4.580231	1.178223	8.560110	0.001444	-0.003096	-0.000278	-0.962985	-0.073960	0.241528	-0.094096
10414		4.562491	1.177431	8.589557	0.001332	0.000030	-0.001700	-0.962976	-0.073970	0.241556	-0.094107
10415		4.579184	1.154194	8.558548	-0.000367	0.000107	-0.003028	-0.962969	-0.073972	0.241583	-0.094109
10416		4.580403	1.178574	8.559970	-0.001953	-0.002941	-0.002936	-0.962958	-0.073969	0.241626	-0.094108
10417		4.560268	1.128750	8.586585	-0.002776	0.003065	0.001978	-0.962953	-0.073953	0.241643	-0.094134
10418		4.556524	1.179045	8.565997	0.001551	0.001513	-0.000139	-0.962945	-0.073962	0.241665	-0.094153
10419		4.555304	1.154755	8.564562	-0.001882	0.000131	-0.002843	-0.962938	-0.073957	0.241693	-0.094155
10420		4.571913	1.131436	8.533610	-0.000515	0.001697	-0.004496	-0.962934	-0.073959	0.241712	-0.094150
10421		4.553943	1.130583	8.563187	-0.000183	0.000054	-0.001514	-0.962925	-0.073961	0.241740	-0.094160
10422		4.578593	1.154265	8.558854	-0.000296	0.003179	-0.002935	-0.962921	-0.073963	0.241754	-0.094164
10423		4.572531	1.155938	8.535338	-0.003362	0.001690	-0.002611	-0.962917	-0.073949	0.241775	-0.094166
10424		4.560249	1.153313	8.588641	0.001220	0.003156	-0.003121	-0.962913	-0.073959	0.241788	-0.094171
10425		4.576536	1.130137	8.557846	-0.000408	0.006305	-0.004357	-0.962913	-0.073960	0.241785	-0.094170
10426		4.553466	1.155288	8.565467	-0.001775	0.004739	-0.002704	-0.962912	-0.073953	0.241791	-0.094175
10427		4.554078	1.179699	8.567208	-0.000408	0.006305	-0.004356	-0.962913	-0.073954	0.241788	-0.094174
10428		4.553563	1.179904	8.567453	0.001255	0.004692	-0.003074	-0.962910	-0.073963	0.241794	-0.094181
10429		4.580388	1.128791	8.582499	-0.003107	0.004708	-0.001004	-0.962908	-0.073948	0.241801	-0.094192
10430		4.575271	1.154782	8.560560	-0.000260	0.004715	-0.002889	-0.962906	-0.073949	0.241806	-0.094198
10431		4.574780	1.154796	8.560821	-0.001557	0.006221	-0.001143	-0.962906	-0.073941	0.241806	-0.094211
10432		4.568521	1.156636	8.537391	0.000854	0.003263	-0.006149	-0.962903	-0.073951	0.241817	-0.094201
10433		4.579640	1.153202	8.584965	-0.004369	0.007749	0.000788	-0.962904	-0.073927	0.241811	-0.094221
10434		4.590955	1.155891	8.532193	0.002694	0.009331	-0.004633	-0.962908	-0.073942	0.241792	-0.094224
10435		4.543003	1.157633	8.544202	-0.000295	0.003179	-0.002935	-0.962904	-0.073943	0.241805	-0.094228
10436		4.573190	1.179486	8.563700	-0.003072	0.006244	-0.000958	-0.962904	-0.073927	0.241805	-0.094240
10437		4.570396	1.130675	8.561056	-0.001740	0.006274	-0.002657	-0.962904	-0.073920	0.241803	-0.094245
10438		4.565155	1.156668	8.539187	-0.001557	0.006221	-0.001143	-0.962904	-0.073912	0.241803	-0.094259
10439		4.569283	1.130705	8.561646	0.001291	0.006228	-0.003027	-0.962903	-0.073920	0.241800	-0.094266
10440		4.564239	1.156904	8.539644	-0.000148	0.001590	-0.001468	-0.962897	-0.073921	0.241822	-0.094277
10441		4.586572	1.131939	8.532417	-0.000478	0.003233	-0.004449	-0.962894	-0.073923	0.241833	-0.094274
10442		4.569285	1.155514	8.563658	0.001326	0.007764	-0.002980	-0.962895	-0.073930	0.241824	-0.094281
10443		4.587735	1.180986	8.535902	-0.000077	0.004662	-0.001374	-0.962892	-0.073930	0.241830	-0.094294
10444		4.567057	1.131338	8.562750	-0.001705	0.007810	-0.002611	-0.962894	-0.073922	0.241822	-0.094300
10445		4.567461	1.155751	8.564599	-0.000372	0.007841	-0.004310	-0.962897	-0.073922	0.241811	-0.094300
10446		4.565682	1.131529	8.563458	-0.002105	0.006381	-0.005686	-0.962899	-0.073916	0.241809	-0.094291
10447		4.566193	1.155995	8.565243	-0.000407	0.006305	-0.004356	-0.962900	-0.073917	0.241806	-0.094290
10448		4.565482	1.156340	8.565575	0.004391	0.009254	-0.003302	-0.962901	-0.073939	0.241788	-0.094302
10449		4.581492	1.133279	8.534968	-0.002070	0.007917	-0.005640	-0.962905	-0.073933	0.241777	-0.094293
10450		4.563875	1.156958	8.566348	0.002329	0.009438	-0.007660	-0.962911	-0.073949	0.241757	-0.094280
10451		4.586704	1.156569	8.560920	-0.000156	0.009323	-0.002749	-0.962914	-0.073947	0.241740	-0.094288
10452		4.562235	1.157497	8.567149	0.001143	0.007818	-0.004494	-0.962916	-0.073955	0.241729	-0.094289
10453		4.562681	1.182074	8.568947	-0.000407	0.006304	-0.004356	-0.962917	-0.073956	0.241726	-0.094288
10454		4.559821	1.133550	8.566313	-0.000373	0.007840	-0.004310	-0.962919	-0.073956	0.241716	-0.094287
10455		4.583885	1.157301	8.562331	-0.002070	0.007916	-0.005640	-0.962923	-0.073949	0.241705	-0.094279
10456		4.583099	1.157467	8.562730	0.001359	0.009300	-0.002933	-0.962926	-0.073956	0.241689	-0.094289
10457		4.565671	1.181086	8.593991	-0.000840	0.003339	-0.007478	-0.962925	-0.073960	0.241698	-0.094271
10458		4.551342	1.135960	8.543999	0.000025	0.009269	-0.001234	-0.962928	-0.073958	0.241683	-0.094287
10459		4.580025	1.133783	8.562218	0.000779	0.007924	-0.007522	-0.962931	-0.073967	0.241670	-0.094272
10460		4.585171	1.132537	8.586153	0.002408	0.004777	-0.006285	-0.962930	-0.073985	0.241673	-0.094265
10461		4.550549	1.161480	8.546326	0.002408	0.004777	-0.006285	-0.962929	-0.074002	0.241675	-0.094257
10462		4.586400	1.182189	8.589493	0.002589	0.004723	-0.004770	-0.962927	-0.074019	0.241679	-0.094257
10463		4.556552	1.184729	8.571841	-0.003326	0.003223	-0.002569	-0.962924	-0.074006	0.241693	-0.094259
10464		4.548172	1.137914	8.545427	0.004321	0.006183	-0.003393	-0.962923	-0.074029	0.241689	-0.094268
10465		4.602908	1.183757	8.560691	-0.003802	0.006455	-0.007019	-0.962926	-0.074016	0.241685	-0.094250
10466		4.571640	1.161702	8.541769	-0.003007	0.009313	-0.000868	-0.962930	-0.073999	0.241671	-0.094265
10467		4.575463	1.135620	8.564413	-0.002217	0.009504	-0.007109	-0.962936	-0.073993	0.241652	-0.094250
10468		4.580412	1.134074	8.588489	-0.000373	0.007839	-0.004310	-0.962939	-0.073993	0.241642	-0.094250
10469		4.551317	1.160911	8.572492	-0.001889	0.007861	-0.004127	-0.962942	-0.073986	0.241632	-0.094249
10470		4.551742	1.185351	8.574310	-0.000407	0.006304	-0.004356	-0.962943	-0.073987	0.241630	-0.094248
10471		4.573706	1.160472	8.567344	-0.000373	0.007839	-0.004310	-0.962945	-0.073987	0.241619	-0.094248
10472		4.571960	1.136249	8.566200	-0.002104	0.006379	-0.005688	-0.962947	-0.073981	0.241617	-0.094238
10473		4.565633	1.137876	8.542851	-0.003076	0.006240	-0.000962	-0.962947	-0.073965	0.241617	-0.094250
10474		4.567275	1.186634	8.546084	0.000893	0.004799	-0.006100	-0.962947	-0.073974	0.241621	-0.094240
10475		4.541905	1.163078	8.550706	-0.003224	0.007829	-0.002429	-0.962949	-0.073959	0.241612	-0.094246
10476		4.593274	1.135580	8.561669	-0.001889	0.007861	-0.004127	-0.962952	-0.073951	0.241603	-0.094244
10477		4.546219	1.161337	8.575139	-0.001889	0.007861	-0.004127	-0.962956	-0.073944	0.241593	-0.094243
10478		4.569136	1.160672	8.569755	-0.001855	0.009397	-0.004080	-0.962960	-0.073936	0.241577	-0.094244
10479		4.563683	1.186673	8.547998	-0.003405	0.007883	-0.003944	-0.962964	-0.073921	0.241568	-0.094242
10480		4.567704	1.160560	8.570533	-0.001742	0.006272	-0.002659	-0.962964	-0.073914	0.241567	-0.094248
10481		4.565848	1.135965	8.569497	-0.008065	0.011072	-0.004817	-0.962973	-0.073876	0.241545	-0.094238
10482		4.566197	1.160061	8.571404	-0.001776	0.004736	-0.002706	-0.962972	-0.073870	0.241551	-0.094243
10483		4.564418	1.135715	8.570292	-0.001822	0.010932	-0.004032	-0.962978	-0.073861	0.241527	-0.094244
10484		4.545588	1.134656	8.600209	-0.003405	0.007882	-0.003944	-0.962982	-0.073845	0.241519	-0.094241
10485		4.581828	1.160995	8.543210	-0.001855	0.009396	-0.004079	-0.962987	-0.073837	0.241501	-0.094242
10486		4.564123	1.184348	8.574575	-0.001889	0.007861	-0.004126	-0.962990	-0.073830	0.241492	-0.094240
10487		4.561285	1.135588	8.571977	-0.003224	0.007829	-0.002430	-0.962993	-0.073814	0.241484	-0.094246
10488		4.541579	1.110316	8.600271	0.000929	0.006336	-0.006052	-0.962994	-0.073824	0.241480	-0.094238
10489		4.560883	1.160108	8.574226	-0.005034	0.011028	-0.005183	-0.963002	-0.073801	0.241456	-0.094230
10490		4.560193	1.160284	8.574569	0.002198	0.003297	-0.007842	-0.963000	-0.073820	0.241465	-0.094214
10491		4.577705	1.161665	8.545329	-0.000407	0.006303	-0.004355	-0.963001	-0.073821	0.241462	-0.094213
10492		4.582755	1.160224	8.569325	0.000962	0.007871	-0.006005	-0.963004	-0.073829	0.241450	-0.094206
10493		4.539299	1.135838	8.603374	-0.000767	0.006410	-0.007384	-0.963006	-0.073832	0.241445	-0.094190
10494		4.581441	1.160923	8.569933	0.002444	0.006315	-0.006233	-0.963007	-0.073848	0.241441	-0.094182
10495		4.575181	1.163118	8.546483	0.002411	0.004779	-0.006280	-0.963006	-0.073865	0.241443	-0.094174
10496		4.528126	1.189088	8.559834	-0.002037	0.009449	-0.005594	-0.963012	-0.073859	0.241425	-0.094167
10497		4.561475	1.160797	8.600299	-0.000407	0.006303	-0.004355	-0.963012	-0.073859	0.241422	-0.094166
10498		4.549393	1.164317	8.553283	-0.002070	0.007913	-0.005641	-0.963016	-0.073853	0.241412	-0.094157
10499		4.548607	1.164412	8.553688	-0.000162	0.009321	-0.002747	-0.963020	-0.073852	0.241395	-0.094166
10500		4.552479	1.138463	8.576276	-0.002070	0.007913	-0.005641	-0.963024	-0.073845	0.241385	-0.094157
10501		4.556349	1.112443	8.598872	-0.001678	0.009342	-0.002565	-0.963028	-0.073836	0.241369	-0.094165
10502		4.574622	1.137991	8.571330	0.000962	0.007871	-0.006004	-0.963031	-0.073845	0.241357	-0.094159
10503		4.575062	1.162805	8.573085	0.004107	0.004705	-0.004946	-0.963028	-0.073870	0.241359	-0.094159
10504		4.568905	1.164874	8.549601	-0.000440	0.004767	-0.004403	-0.963027	-0.073871	0.241364	-0.094157
10505		4.550304	1.163903	8.579331	-0.001711	0.007806	-0.002613	-0.963029	-0.073863	0.241355	-0.094164
10506		4.579124	1.161711	8.597553	0.000897	0.004800	-0.006098	-0.963028	-0.073873	0.241359	-0.094155
10507		4.567191	1.165393	8.550446	-0.000587	0.006356	-0.005870	-0.963030	-0.073875	0.241355	-0.094147
10508		4.547472	1.140100	8.578714	-0.001711	0.007805	-0.002613	-0.963032	-0.073867	0.241347	-0.094154
10509		4.583857	1.166600	8.521726	-0.000375	0.007838	-0.004308	-0.963035	-0.073867	0.241336	-0.094154
10510		4.523342	1.165288	8.586693	-0.002070	0.007912	-0.005642	-0.963038	-0.073861	0.241326	-0.094145
10511		4.545428	1.140341	8.579765	-0.001956	0.004788	-0.004222	-0.963038	-0.073855	0.241331	-0.094142
10512		4.563883	1.165881	8.552145	-0.000733	0.007945	-0.007337	-0.963042	-0.073857	0.241319	-0.094127
10513		4.563228	1.166046	8.552473	-0.000049	0.006196	-0.001326	-0.963041	-0.073856	0.241318	-0.094141
10514		4.568341	1.164459	8.576444	-0.000407	0.006302	-0.004355	-0.963042	-0.073857	0.241316	-0.094140
10515		4.544093	1.165270	8.582437	-0.000440	0.004767	-0.004402	-0.963041	-0.073858	0.241320	-0.094138
10516		4.531261	1.144315	8.533809	-0.003292	0.004754	-0.002527	-0.963040	-0.073844	0.241328	-0.094141
10517		4.566864	1.164592	8.577212	-0.000228	0.006249	-0.002840	-0.963040	-0.073844	0.241325	-0.094148
10518		4.560630	1.166373	8.553814	-0.000050	0.006196	-0.001326	-0.963038	-0.073843	0.241325	-0.094162
10519		4.565725	1.164881	8.577779	0.000930	0.006336	-0.006050	-0.963040	-0.073852	0.241320	-0.094154
10520		4.559569	1.166795	8.554321	-0.002166	0.003305	-0.005784	-0.963038	-0.073848	0.241332	-0.094143
10521		4.558154	1.142750	8.552991	0.004287	0.004653	-0.003429	-0.963035	-0.073871	0.241335	-0.094151
10522		4.558738	1.167343	8.554690	-0.001777	0.004734	-0.002707	-0.963033	-0.073865	0.241342	-0.094155
10523		4.539173	1.141886	8.582870	-0.001566	0.006216	-0.001145	-0.963033	-0.073856	0.241341	-0.094168
10524		4.562330	1.141355	8.577433	0.001109	0.006282	-0.004535	-0.963033	-0.073865	0.241338	-0.094168
10525		4.539097	1.166574	8.584903	-0.000439	0.004767	-0.004402	-0.963032	-0.073866	0.241343	-0.094166
10526		4.562428	1.166028	8.579378	-0.001987	0.003251	-0.004269	-0.963029	-0.073861	0.241356	-0.094162
10527		4.557448	1.192096	8.557363	-0.001987	0.003251	-0.004269	-0.963027	-0.073856	0.241368	-0.094158
10528		4.578696	1.143040	8.548843	0.004319	0.006189	-0.003381	-0.963025	-0.073879	0.241365	-0.094167
10529		4.554522	1.144019	8.554756	-0.000471	0.003231	-0.004450	-0.963022	-0.073881	0.241376	-0.094164
10530		4.559804	1.142391	8.578638	-0.001777	0.004733	-0.002708	-0.963021	-0.073875	0.241383	-0.094169
10531		4.559519	1.142515	8.578772	0.003064	0.001496	-0.000313	-0.963013	-0.073890	0.241403	-0.094189
10532		4.532011	1.193772	8.563845	0.001369	0.001569	-0.001648	-0.963006	-0.073899	0.241424	-0.094200
10533		4.577289	1.144002	8.549468	0.001369	0.001569	-0.001648	-0.962999	-0.073907	0.241444	-0.094212
10534		4.553398	1.144786	8.555252	-0.000325	0.001642	-0.002982	-0.962993	-0.073909	0.241465	-0.094215
10535		4.583655	1.166696	8.574814	-0.002822	0.001522	0.001922	-0.962986	-0.073894	0.241488	-0.094239
10536		4.547410	1.146412	8.531747	0.004611	0.003011	-0.000445	-0.962979	-0.073916	0.241502	-0.094261
10537		4.558436	1.143314	8.579242	-0.000471	0.003231	-0.004450	-0.962976	-0.073918	0.241513	-0.094258
10538		4.571602	1.170619	8.527756	0.001191	0.001622	-0.003162	-0.962970	-0.073928	0.241533	-0.094262
10539		4.558031	1.143642	8.579413	0.000032	0.001535	0.000047	-0.962963	-0.073928	0.241555	-0.094280
10540		4.575947	1.144827	8.550076	0.001191	0.001622	-0.003162	-0.962957	-0.073938	0.241575	-0.094284
10541		4.576703	1.169448	8.551672	0.001045	0.003211	-0.004630	-0.962953	-0.073948	0.241585	-0.094282
10542		4.552722	1.170351	8.557482	0.001191	0.001622	-0.003162	-0.962947	-0.073958	0.241605	-0.094287
10543		4.581943	1.168181	8.575527	-0.000146	0.001589	-0.001468	-0.962941	-0.073959	0.241626	-0.094298
10544		4.558062	1.168864	8.581312	-0.000146	0.001589	-0.001468	-0.962934	-0.073961	0.241648	-0.094310
10545		4.574704	1.145318	8.550676	-0.007778	0.007883	-0.001894	-0.962938	-0.073922	0.241642	-0.094313
10546		4.556140	1.143990	8.580371	-0.000115	0.003124	-0.001420	-0.962933	-0.073923	0.241656	-0.094325
10547		4.562491	1.166684	8.605719	-0.001987	0.003251	-0.004270	-0.962931	-0.073918	0.241668	-0.094321
10548		4.579181	1.143333	8.575034	-0.003293	0.004752	-0.002528	-0.962930	-0.073904	0.241675	-0.094324
10549		4.555091	1.143833	8.580949	-0.001631	0.003144	-0.001241	-0.962926	-0.073896	0.241689	-0.094335
10550		4.555732	1.168193	8.582641	-0.000261	0.004713	-0.002888	-0.962924	-0.073898	0.241695	-0.094341
10551		4.602897	1.166889	8.571396	-0.003178	0.001628	-0.001108	-0.962919	-0.073884	0.241717	-0.094350
10552		4.548502	1.145262	8.557792	-0.003115	0.004699	-0.001014	-0.962917	-0.073869	0.241725	-0.094361
10553		4.554726	1.167789	8.583229	-0.001777	0.004733	-0.002708	-0.962915	-0.073862	0.241731	-0.094366
10554		4.595180	1.143630	8.546857	-0.006179	0.003203	-0.000702	-0.962912	-0.073833	0.241748	-0.094375
10555		4.553006	1.142845	8.582187	-0.003293	0.004752	-0.002528	-0.962911	-0.073819	0.241754	-0.094379
10556		4.577299	1.166404	8.578248	-0.003293	0.004752	-0.002528	-0.962910	-0.073805	0.241762	-0.094383
10557		4.575864	1.142029	8.576978	-0.000261	0.004713	-0.002887	-0.962908	-0.073805	0.241767	-0.094388
10558		4.576501	1.166389	8.578676	-0.001631	0.003144	-0.001240	-0.962904	-0.073798	0.241781	-0.094399
10559		4.569642	1.143588	8.553613	-0.003178	0.001628	-0.001109	-0.962899	-0.073784	0.241804	-0.094408
10560		4.569468	1.143559	8.553710	-0.000502	0.001696	-0.004497	-0.962894	-0.073787	0.241823	-0.094404
10561		4.593036	1.143092	8.548081	0.001547	0.001516	-0.000132	-0.962886	-0.073795	0.241844	-0.094423
10562		4.569962	1.167878	8.555491	-0.006116	0.006273	-0.000607	-0.962887	-0.073764	0.241847	-0.094433
10563		4.568543	1.143200	8.554252	-0.003325	0.003217	-0.002576	-0.962884	-0.073750	0.241860	-0.094436
10564		4.597545	1.140785	8.572463	-0.001777	0.004733	-0.002708	-0.962883	-0.073744	0.241867	-0.094440
10565		4.573364	1.141469	8.578386	-0.000439	0.004767	-0.004402	-0.962882	-0.073745	0.241871	-0.094438
10566		4.584371	1.120004	8.524029	-0.001955	0.004786	-0.004222	-0.962881	-0.073740	0.241877	-0.094436
10567		4.596114	1.141184	8.573177	0.002625	0.006263	-0.004712	-0.962881	-0.073756	0.241872	-0.094436
10568		4.549242	1.167057	8.586237	-0.000501	0.001696	-0.004497	-0.962876	-0.073759	0.241891	-0.094432
10569		4.567024	1.168074	8.557033	-0.004810	0.004771	-0.002349	-0.962876	-0.073737	0.241899	-0.094435
10570		4.565599	1.143561	8.555775	-0.001777	0.004732	-0.002708	-0.962874	-0.073730	0.241905	-0.094439
10571		4.565011	1.143656	8.556077	-0.000554	0.007891	-0.005821	-0.962878	-0.073731	0.241894	-0.094431
10572		4.593645	1.141608	8.574443	0.001139	0.007818	-0.004485	-0.962880	-0.073738	0.241884	-0.094431
10573		4.539824	1.144756	8.562467	-0.000377	0.007837	-0.004306	-0.962883	-0.073738	0.241873	-0.094431
10574		4.569592	1.166933	8.582284	-0.000261	0.004713	-0.002887	-0.962881	-0.073739	0.241879	-0.094436
10575		4.562480	1.144258	8.557346	-0.003263	0.006287	-0.002481	-0.962881	-0.073724	0.241878	-0.094441
10576		4.568520	1.166945	8.582853	0.001286	0.006229	-0.003018	-0.962881	-0.073732	0.241876	-0.094448
10577		4.585019	1.143529	8.552326	-0.007780	0.007879	-0.001898	-0.962885	-0.073693	0.241870	-0.094452
10578		4.560639	1.143787	8.558390	-0.003440	0.006340	-0.003996	-0.962887	-0.073679	0.241868	-0.094448
10579		4.565747	1.142083	8.582361	-0.000261	0.004713	-0.002886	-0.962885	-0.073680	0.241873	-0.094454
10580		4.534973	1.120149	8.563036	-0.000261	0.004713	-0.002886	-0.962883	-0.073680	0.241879	-0.094459
10581		4.588654	1.141756	8.577096	-0.000646	0.003285	-0.005964	-0.962881	-0.073683	0.241890	-0.094448
10582		4.578003	1.169671	8.531406	-0.000261	0.004713	-0.002886	-0.962879	-0.073684	0.241895	-0.094454
10583		4.534707	1.144913	8.565157	-0.002131	0.004839	-0.005738	-0.962879	-0.073679	0.241899	-0.094443
10584		4.582714	1.168133	8.555567	-0.000085	0.004659	-0.001371	-0.962876	-0.073679	0.241906	-0.094456
10585		4.557628	1.144491	8.559900	-0.000469	0.003231	-0.004449	-0.962874	-0.073681	0.241917	-0.094453
10586		4.557246	1.144558	8.560094	-0.001778	0.004732	-0.002708	-0.962872	-0.073675	0.241924	-0.094458
10587		4.556875	1.144667	8.560277	0.001224	0.003159	-0.003112	-0.962868	-0.073684	0.241936	-0.094463
10588		4.581205	1.168557	8.556317	-0.001954	0.004785	-0.004223	-0.962867	-0.073678	0.241942	-0.094461
10589		4.561645	1.143264	8.584384	0.001078	0.004748	-0.004579	-0.962866	-0.073687	0.241945	-0.094460
10590		4.544023	1.166734	8.615478	-0.000438	0.004767	-0.004401	-0.962864	-0.073689	0.241950	-0.094458
10591		4.555194	1.145265	8.561092	-0.001808	0.003196	-0.002756	-0.962861	-0.073682	0.241963	-0.094461
10592		4.578478	1.144838	8.555655	0.000932	0.006337	-0.006046	-0.962862	-0.073692	0.241959	-0.094453
10593		4.578008	1.145098	8.555871	-0.000469	0.003231	-0.004449	-0.962860	-0.073694	0.241971	-0.094450
10594		4.559544	1.144286	8.585364	0.002564	0.003194	-0.004805	-0.962856	-0.073712	0.241981	-0.094449
10595		4.571694	1.147237	8.532491	-0.003294	0.004750	-0.002530	-0.962855	-0.073697	0.241988	-0.094453
10596		4.553120	1.146025	8.562094	-0.001778	0.004731	-0.002708	-0.962853	-0.073690	0.241994	-0.094457
10597		4.558352	1.144363	8.585987	-0.000292	0.003178	-0.002934	-0.962850	-0.073692	0.242006	-0.094462
10598		4.581789	1.143888	8.580481	-0.000292	0.003178	-0.002934	-0.962846	-0.073693	0.242020	-0.094465
10599		4.581636	1.143942	8.580556	0.000000	0.000000	0.000000	-0.962846	-0.073693	0.242020	-0.094465
10600		4.580424	1.119731	8.579151	-0.000791	0.004873	-0.007431	-0.962846	-0.073696	0.242023	-0.094449
10601		4.546231	1.148321	8.538997	0.001133	-0.001446	-0.003256	-0.962837	-0.073707	0.242057	-0.094451
10602		4.599144	1.145566	8.551473	-0.001778	0.004731	-0.002708	-0.962835	-0.073700	0.242064	-0.094455
10603		4.575029	1.146326	8.557300	0.002740	0.003141	-0.003290	-0.962831	-0.073717	0.242075	-0.094461
10604		4.556567	1.145549	8.586776	0.001048	0.003213	-0.004627	-0.962827	-0.073726	0.242086	-0.094458
10605		4.574329	1.146943	8.557591	0.001254	0.004694	-0.003064	-0.962825	-0.073734	0.242091	-0.094464
10606		4.579479	1.145520	8.581497	0.001078	0.004748	-0.004579	-0.962823	-0.073744	0.242095	-0.094464
10607		4.544082	1.149657	8.539961	-0.001955	0.004784	-0.004223	-0.962823	-0.073738	0.242099	-0.094461
10608		4.578560	1.145778	8.581952	-0.000439	0.004766	-0.004401	-0.962822	-0.073740	0.242104	-0.094460
10609		4.566847	1.149339	8.534803	-0.000409	0.006301	-0.004353	-0.962822	-0.073741	0.242101	-0.094459
10610		4.572037	1.147900	8.558688	0.000842	0.001731	-0.006190	-0.962818	-0.073751	0.242119	-0.094447
10611		4.553555	1.147007	8.588179	-0.000263	0.004713	-0.002886	-0.962816	-0.073752	0.242124	-0.094453
10612		4.576864	1.146475	8.582764	-0.001779	0.004731	-0.002709	-0.962815	-0.073745	0.242131	-0.094457
10613		4.570771	1.148214	8.559322	-0.000233	0.006248	-0.002838	-0.962815	-0.073745	0.242129	-0.094463
10614		4.570258	1.148419	8.559568	0.001078	0.004748	-0.004579	-0.962813	-0.073754	0.242133	-0.094462
10615		4.564343	1.150280	8.536016	-0.002014	0.001713	-0.004319	-0.962809	-0.073750	0.242152	-0.094457
10616		4.564016	1.150374	8.536178	-0.000439	0.004766	-0.004401	-0.962808	-0.073751	0.242157	-0.094455
10617		4.545353	1.149353	8.565773	-0.000057	0.006194	-0.001323	-0.962807	-0.073750	0.242156	-0.094469
10618		4.568741	1.148937	8.560309	0.001194	0.001624	-0.003159	-0.962801	-0.073760	0.242176	-0.094474
10619		4.592226	1.148673	8.554774	0.000872	0.003266	-0.006141	-0.962798	-0.073771	0.242186	-0.094464
10620		4.568073	1.149567	8.560580	0.001078	0.004748	-0.004579	-0.962797	-0.073780	0.242190	-0.094463
10621		4.567625	1.149841	8.560783	0.001253	0.004695	-0.003064	-0.962794	-0.073788	0.242194	-0.094469
10622		4.561661	1.151741	8.537252	-0.000468	0.003230	-0.004449	-0.962791	-0.073790	0.242206	-0.094466
10623		4.572507	1.148487	8.584817	-0.000292	0.003177	-0.002934	-0.962788	-0.073792	0.242219	-0.094471
10624		4.591327	1.174231	8.557116	0.004608	0.003017	-0.000436	-0.962781	-0.073814	0.242231	-0.094492
10625		4.571926	1.149039	8.585053	-0.000468	0.003230	-0.004449	-0.962778	-0.073816	0.242243	-0.094489
10626		4.595161	1.148546	8.579689	-0.001720	0.007800	-0.002614	-0.962780	-0.073808	0.242235	-0.094496
10627		4.564387	1.126519	8.560354	-0.000468	0.003230	-0.004449	-0.962777	-0.073810	0.242246	-0.094493
10628		4.569636	1.125057	8.584206	0.001048	0.003213	-0.004626	-0.962774	-0.073820	0.242258	-0.094492
10629		4.564675	1.151443	8.562141	0.002740	0.003142	-0.003289	-0.962769	-0.073837	0.242269	-0.094498
10630		4.569921	1.150258	8.585957	0.003905	0.003231	-0.006496	-0.962765	-0.073863	0.242278	-0.094490
10631		4.587745	1.152026	8.556727	0.003905	0.003231	-0.006496	-0.962762	-0.073888	0.242287	-0.094482
10632		4.545488	1.151746	8.591818	-0.001809	0.003194	-0.002757	-0.962759	-0.073882	0.242301	-0.094485
10633		4.568976	1.151493	8.586294	0.003876	0.001696	-0.006543	-0.962754	-0.073908	0.242316	-0.094477
10634		4.563150	1.153525	8.562673	-0.000117	0.003123	-0.001419	-0.962749	-0.073909	0.242331	-0.094488
10635		4.579969	1.130491	8.532034	0.001107	0.006283	-0.004531	-0.962749	-0.073917	0.242327	-0.094488
10636		4.556760	1.155597	8.539348	-0.000322	0.001641	-0.002982	-0.962744	-0.073920	0.242347	-0.094492
10637		4.585766	1.153564	8.557580	0.001077	0.004748	-0.004579	-0.962742	-0.073929	0.242350	-0.094491
10638		4.560633	1.130065	8.561887	0.001077	0.004748	-0.004579	-0.962741	-0.073938	0.242354	-0.094490
10639		4.580145	1.180178	8.535830	0.001282	0.006230	-0.003016	-0.962740	-0.073945	0.242351	-0.094497
10640		4.560680	1.154840	8.563812	-0.000146	0.001588	-0.001467	-0.962733	-0.073946	0.242373	-0.094507
10641		4.583198	1.130010	8.556840	-0.002131	0.004835	-0.005740	-0.962734	-0.073941	0.242377	-0.094497
10642		4.583680	1.154470	8.558576	0.001603	0.004588	-0.000033	-0.962730	-0.073948	0.242384	-0.094518
10643		4.577755	1.156239	8.535046	-0.001984	0.003247	-0.004273	-0.962727	-0.073942	0.242396	-0.094514
10644		4.582872	1.154620	8.558988	-0.000235	0.006247	-0.002839	-0.962727	-0.073943	0.242394	-0.094522
10645		4.577789	1.180766	8.537012	-0.000293	0.003176	-0.002935	-0.962723	-0.073944	0.242406	-0.094526
10646		4.581149	1.130559	8.557865	0.001253	0.004694	-0.003063	-0.962721	-0.073952	0.242411	-0.094531
10647		4.587330	1.153304	8.583241	-0.001663	0.001605	-0.001291	-0.962715	-0.073946	0.242433	-0.094541
10648		4.581387	1.155265	8.559696	0.003964	0.006302	-0.006399	-0.962715	-0.073970	0.242427	-0.094535
10649		4.562720	1.154519	8.589214	-0.000468	0.003229	-0.004450	-0.962713	-0.073972	0.242438	-0.094532
10650		4.580512	1.155786	8.560094	-0.002130	0.004834	-0.005740	-0.962713	-0.073967	0.242443	-0.094522
10651		4.556297	1.156488	8.565922	0.001252	0.004694	-0.003063	-0.962710	-0.073975	0.242447	-0.094528
10652		4.549385	1.134027	8.540902	-0.000439	0.004764	-0.004402	-0.962709	-0.073977	0.242452	-0.094526
10653		4.579147	1.156319	8.560752	-0.000439	0.004764	-0.004402	-0.962708	-0.073978	0.242457	-0.094524
10654		4.578688	1.156414	8.560985	-0.001955	0.004781	-0.004226	-0.962708	-0.073972	0.242462	-0.094521
10655		4.553633	1.132762	8.565256	0.001049	0.003212	-0.004626	-0.962704	-0.073982	0.242473	-0.094519
10656		4.578729	1.181120	8.562916	-0.002102	0.006369	-0.005693	-0.962706	-0.073976	0.242470	-0.094510
10657		4.578149	1.181188	8.563217	-0.000061	0.006193	-0.001324	-0.962705	-0.073975	0.242469	-0.094523
10658		4.576885	1.157127	8.561853	0.004228	0.001591	-0.003511	-0.962698	-0.074000	0.242487	-0.094529
10659		4.575590	1.133147	8.560496	-0.000585	0.006352	-0.005869	-0.962700	-0.074001	0.242483	-0.094521
10660		4.575056	1.133338	8.560756	-0.000439	0.004764	-0.004402	-0.962699	-0.074003	0.242488	-0.094518
10661		4.574609	1.133544	8.560968	0.001252	0.004694	-0.003063	-0.962697	-0.074011	0.242492	-0.094525
10662		4.574173	1.133722	8.561177	-0.000264	0.004711	-0.002887	-0.962695	-0.074011	0.242498	-0.094530
10663		4.550939	1.158777	8.568461	0.001224	0.003159	-0.003111	-0.962691	-0.074020	0.242510	-0.094535
10664		4.598228	1.158013	8.557362	0.002887	0.001555	-0.001819	-0.962683	-0.074036	0.242529	-0.094548
10665		4.597834	1.158316	8.557533	-0.000760	0.006405	-0.007385	-0.962686	-0.074039	0.242524	-0.094532
10666		4.572721	1.134654	8.561829	-0.000118	0.003123	-0.001420	-0.962681	-0.074039	0.242539	-0.094544
10667		4.573178	1.159114	8.563564	-0.000411	0.006299	-0.004354	-0.962682	-0.074040	0.242535	-0.094543
10668		4.572588	1.159347	8.563848	0.001106	0.006282	-0.004530	-0.962682	-0.074049	0.242532	-0.094542
10669		4.594923	1.134666	8.557006	-0.002130	0.004833	-0.005741	-0.962682	-0.074043	0.242536	-0.094532
10670		4.589872	1.160820	8.535005	-0.000467	0.003229	-0.004450	-0.962680	-0.074046	0.242548	-0.094529
10671		4.570367	1.135404	8.562987	-0.001955	0.004780	-0.004226	-0.962679	-0.074040	0.242553	-0.094526
10672		4.576331	1.158307	8.588437	0.002594	0.004731	-0.004754	-0.962677	-0.074056	0.242556	-0.094525
10673		4.564758	1.161914	8.541234	-0.000063	0.006193	-0.001324	-0.962676	-0.074055	0.242555	-0.094539
10674		4.569932	1.160385	8.565125	0.001196	0.001624	-0.003158	-0.962670	-0.074065	0.242575	-0.094544
10675		4.569484	1.160522	8.565346	-0.001900	0.007850	-0.004131	-0.962673	-0.074057	0.242565	-0.094543
10676		4.616486	1.159518	8.554467	-0.001983	0.003245	-0.004274	-0.962671	-0.074052	0.242578	-0.094539
10677		4.567684	1.136222	8.564310	-0.001955	0.004780	-0.004227	-0.962670	-0.074046	0.242583	-0.094536
10678		4.568108	1.160667	8.566060	-0.000439	0.004764	-0.004402	-0.962669	-0.074048	0.242587	-0.094534
10679		4.561251	1.138132	8.541041	-0.000265	0.004711	-0.002887	-0.962667	-0.074048	0.242592	-0.094539
10680		4.596556	1.158985	8.584588	0.003909	0.003233	-0.006491	-0.962664	-0.074074	0.242601	-0.094532
10681		4.565971	1.137178	8.565096	-0.002129	0.004832	-0.005742	-0.962664	-0.074069	0.242605	-0.094521
10682		4.584683	1.162959	8.537503	0.002566	0.003196	-0.004801	-0.962660	-0.074086	0.242616	-0.094520
10683		4.560655	1.163836	8.543164	0.001022	0.001677	-0.004673	-0.962655	-0.074096	0.242634	-0.094516
10684		4.588742	1.137534	8.559942	-0.000439	0.004763	-0.004402	-0.962654	-0.074098	0.242639	-0.094515
10685		4.553419	1.141530	8.518323	-0.000238	0.006246	-0.002839	-0.962654	-0.074098	0.242637	-0.094521
10686		4.588655	1.162160	8.561937	-0.000467	0.003228	-0.004450	-0.962651	-0.074100	0.242648	-0.094518
10687		4.569211	1.136799	8.589862	-0.000467	0.003228	-0.004450	-0.962648	-0.074102	0.242660	-0.094515
10688		4.587955	1.162433	8.562275	-0.000092	0.004658	-0.001372	-0.962646	-0.074101	0.242667	-0.094526
10689		4.575491	1.141449	8.513607	-0.001727	0.007796	-0.002616	-0.962648	-0.074093	0.242658	-0.094533
10690		4.562305	1.138761	8.566839	0.000849	0.001730	-0.006188	-0.962644	-0.074104	0.242675	-0.094522
10691		4.585744	1.138493	8.561421	-0.000265	0.004710	-0.002887	-0.962642	-0.074105	0.242680	-0.094527
10692		4.580712	1.164726	8.539393	0.001050	0.003212	-0.004625	-0.962638	-0.074115	0.242692	-0.094526
10693		4.579399	1.140580	8.538086	-0.000238	0.006245	-0.002839	-0.962638	-0.074115	0.242690	-0.094532
10694		4.585266	1.163393	8.563585	-0.000439	0.004763	-0.004402	-0.962637	-0.074116	0.242695	-0.094530
10695		4.560231	1.139729	8.567815	-0.000640	0.003281	-0.005965	-0.962635	-0.074119	0.242705	-0.094520
10696		4.602690	1.165149	8.534671	0.002247	0.004837	-0.007783	-0.962635	-0.074138	0.242707	-0.094506
10697		4.560009	1.164764	8.569818	-0.000011	0.009262	-0.001228	-0.962637	-0.074136	0.242690	-0.094521
10698		4.583078	1.164519	8.564603	0.002621	0.006267	-0.004704	-0.962637	-0.074152	0.242686	-0.094522
10699		4.582564	1.164794	8.564841	-0.000266	0.004710	-0.002887	-0.962635	-0.074153	0.242691	-0.094528
10700		4.581194	1.140510	8.563588	-0.001929	0.006313	-0.004180	-0.962636	-0.074146	0.242689	-0.094527
10701		4.551341	1.142741	8.545711	-0.000239	0.006245	-0.002839	-0.962636	-0.074146	0.242687	-0.094533
10702		4.581035	1.165108	8.565616	0.001224	0.003160	-0.003110	-0.962632	-0.074155	0.242699	-0.094538
10703		4.562384	1.164199	8.595058	0.001078	0.004747	-0.004577	-0.962631	-0.074164	0.242702	-0.094537
10704		4.573761	1.142757	8.540817	-0.005135	0.006396	-0.005346	-0.962634	-0.074144	0.242701	-0.094527
10705		4.603287	1.164935	8.560841	-0.000412	0.006298	-0.004354	-0.962634	-0.074144	0.242698	-0.094526
10706		4.579002	1.165626	8.566633	0.001251	0.004695	-0.003062	-0.962632	-0.074153	0.242703	-0.094533
10707		4.554651	1.166316	8.572456	-0.000385	0.007832	-0.004307	-0.962635	-0.074153	0.242692	-0.094533
10708		4.570584	1.118938	8.540472	-0.000239	0.006245	-0.002839	-0.962634	-0.074153	0.242691	-0.094540
10709		4.558975	1.165012	8.596757	0.000905	0.004800	-0.006092	-0.962634	-0.074163	0.242693	-0.094531
10710		4.576792	1.166504	8.567694	0.001251	0.004695	-0.003061	-0.962631	-0.074172	0.242698	-0.094538
10711		4.594700	1.168010	8.538584	0.002741	0.003145	-0.003283	-0.962627	-0.074188	0.242709	-0.094544
10712		4.569645	1.144317	8.542811	-0.001756	0.006260	-0.002665	-0.962627	-0.074180	0.242708	-0.094550
10713		4.598485	1.142180	8.561231	-0.000120	0.003122	-0.001420	-0.962622	-0.074181	0.242721	-0.094562
10714		4.579819	1.141194	8.590673	0.000905	0.004800	-0.006092	-0.962622	-0.074191	0.242725	-0.094553
10715		4.573860	1.143194	8.567150	0.001078	0.004747	-0.004577	-0.962620	-0.074200	0.242728	-0.094551
10716		4.587041	1.170573	8.515899	-0.001955	0.004777	-0.004228	-0.962620	-0.074194	0.242733	-0.094548
10717		4.585035	1.121896	8.513032	-0.002008	0.001707	-0.004324	-0.962615	-0.074189	0.242753	-0.094543
10718		4.568046	1.169473	8.545527	-0.000240	0.006245	-0.002839	-0.962615	-0.074189	0.242751	-0.094551
10719		4.595878	1.143210	8.562494	0.000932	0.006335	-0.006044	-0.962616	-0.074198	0.242746	-0.094543
10720		4.577205	1.142219	8.591930	-0.000146	0.001587	-0.001467	-0.962610	-0.074200	0.242767	-0.094555
10721		4.565922	1.145626	8.544626	-0.002128	0.004830	-0.005744	-0.962610	-0.074195	0.242771	-0.094544
10722		4.595480	1.168098	8.564604	0.002621	0.006267	-0.004702	-0.962610	-0.074211	0.242767	-0.094545
10723		4.571189	1.168843	8.570366	-0.000266	0.004710	-0.002887	-0.962608	-0.074211	0.242772	-0.094550
10724		4.570675	1.168979	8.570621	-0.000413	0.006297	-0.004355	-0.962609	-0.074212	0.242770	-0.094549
10725		4.592264	1.119971	8.562318	-0.000439	0.004762	-0.004402	-0.962608	-0.074214	0.242774	-0.094547
10726		4.591883	1.120108	8.562504	-0.000292	0.003175	-0.002935	-0.962604	-0.074215	0.242787	-0.094552
10727		4.593293	1.168950	8.565661	-0.000491	0.001692	-0.004498	-0.962600	-0.074218	0.242806	-0.094548
10728		4.586637	1.146622	8.540547	0.002250	0.004838	-0.007781	-0.962599	-0.074236	0.242807	-0.094532
10729		4.591773	1.145491	8.564391	0.004232	0.001596	-0.003504	-0.962593	-0.074260	0.242824	-0.094538
10730		4.563018	1.172274	8.547829	-0.002128	0.004829	-0.005744	-0.962593	-0.074255	0.242829	-0.094527
10731		4.586273	1.171771	8.542598	-0.003274	0.006273	-0.002492	-0.962594	-0.074240	0.242828	-0.094532
10732		4.590345	1.145751	8.565122	-0.000413	0.006297	-0.004355	-0.962595	-0.074241	0.242825	-0.094531
10733		4.584296	1.147554	8.541679	-0.000241	0.006244	-0.002839	-0.962594	-0.074241	0.242823	-0.094537
10734		4.593902	1.119867	8.587902	-0.003472	0.004791	-0.004056	-0.962594	-0.074227	0.242829	-0.094534
10735		4.564952	1.146233	8.571493	-0.003447	0.006325	-0.004008	-0.962596	-0.074213	0.242827	-0.094531
10736		4.564429	1.146258	8.571769	-0.000439	0.004762	-0.004402	-0.962595	-0.074215	0.242832	-0.094530
10737		4.587707	1.145912	8.566514	-0.000069	0.006192	-0.001324	-0.962594	-0.074214	0.242830	-0.094544
10738		4.581042	1.123432	8.541432	0.000855	0.001730	-0.006187	-0.962590	-0.074225	0.242848	-0.094533
10739		4.586986	1.146310	8.566846	-0.001956	0.004776	-0.004229	-0.962589	-0.074219	0.242853	-0.094530
10740		4.581065	1.148141	8.543333	0.001078	0.004748	-0.004576	-0.962588	-0.074228	0.242857	-0.094530
10741		4.557651	1.173150	8.550572	-0.000267	0.004709	-0.002887	-0.962586	-0.074229	0.242862	-0.094535
10742		4.610358	1.170720	8.563453	-0.000490	0.001692	-0.004498	-0.962581	-0.074232	0.242881	-0.094531
10743		4.579986	1.148620	8.543847	-0.000267	0.004709	-0.002887	-0.962579	-0.074232	0.242886	-0.094536
10744		4.579617	1.148523	8.544058	-0.004843	0.003217	-0.002415	-0.962577	-0.074210	0.242902	-0.094537
10745		4.550765	1.174730	8.527607	-0.003103	0.006220	-0.000977	-0.962577	-0.074194	0.242902	-0.094549
10746		4.578836	1.148275	8.544510	0.001199	0.001626	-0.003156	-0.962571	-0.074204	0.242921	-0.094553
10747		4.607705	1.146270	8.562933	-0.001758	0.006258	-0.002666	-0.962571	-0.074196	0.242920	-0.094559
10748		4.577954	1.148452	8.544959	-0.000439	0.004762	-0.004402	-0.962570	-0.074198	0.242925	-0.094557
10749		4.577573	1.148520	8.545154	-0.001809	0.003188	-0.002762	-0.962567	-0.074192	0.242938	-0.094561
10750		4.600987	1.148117	8.539851	-0.000267	0.004709	-0.002887	-0.962565	-0.074192	0.242943	-0.094565
10751		4.576692	1.148628	8.545611	-0.001930	0.006310	-0.004181	-0.962566	-0.074185	0.242941	-0.094563
10752		4.587876	1.169878	8.594864	0.002595	0.004734	-0.004748	-0.962564	-0.074201	0.242944	-0.094563
10753		4.575776	1.149163	8.546030	-0.000464	0.003227	-0.004450	-0.962562	-0.074204	0.242955	-0.094560
10754		4.581570	1.172012	8.571518	-0.000413	0.006296	-0.004354	-0.962562	-0.074205	0.242953	-0.094560
10755		4.574872	1.149394	8.546483	-0.001809	0.003188	-0.002762	-0.962559	-0.074199	0.242966	-0.094564
10756		4.604525	1.171710	8.566455	-0.000439	0.004762	-0.004402	-0.962558	-0.074200	0.242971	-0.094562
10757		4.578561	1.123440	8.569199	-0.003251	0.007806	-0.002445	-0.962561	-0.074184	0.242963	-0.094567
10758		4.602514	1.147328	8.565583	-0.000242	0.006244	-0.002839	-0.962560	-0.074184	0.242961	-0.094573
10759		4.572784	1.149335	8.547608	-0.004818	0.004750	-0.002369	-0.962560	-0.074162	0.242968	-0.094576
10760		4.601381	1.147203	8.566208	0.001325	0.009300	-0.002915	-0.962563	-0.074168	0.242951	-0.094585
10761		4.571523	1.149278	8.548290	-0.004818	0.004750	-0.002369	-0.962563	-0.074146	0.242958	-0.094588
10762		4.594853	1.148872	8.543051	0.000907	0.004801	-0.006090	-0.962562	-0.074156	0.242961	-0.094580
10763		4.552269	1.148273	8.577963	-0.000096	0.004657	-0.001371	-0.962559	-0.074156	0.242967	-0.094593
10764		4.588480	1.150760	8.519783	-0.001759	0.006257	-0.002666	-0.962559	-0.074148	0.242966	-0.094599
10765		4.593340	1.149160	8.543826	-0.000413	0.006296	-0.004354	-0.962560	-0.074149	0.242963	-0.094598
10766		4.569897	1.174080	8.551053	-0.000292	0.003174	-0.002935	-0.962556	-0.074151	0.242976	-0.094603
10767		4.592447	1.149503	8.544260	0.001104	0.006283	-0.004526	-0.962557	-0.074159	0.242972	-0.094603
10768		4.598299	1.172366	8.569709	-0.000146	0.001587	-0.001467	-0.962550	-0.074160	0.242993	-0.094614
10769		4.597269	1.147985	8.568311	-0.003497	0.003254	-0.004106	-0.962548	-0.074147	0.243006	-0.094610
10770		4.592246	1.173938	8.546312	-0.001784	0.004722	-0.002714	-0.962547	-0.074140	0.243012	-0.094614
10771		4.590234	1.125272	8.543478	-0.000267	0.004709	-0.002886	-0.962545	-0.074141	0.243017	-0.094619
10772		4.548501	1.148848	8.579885	-0.001809	0.003188	-0.002762	-0.962542	-0.074134	0.243031	-0.094621
10773		4.590348	1.149570	8.545379	-0.003326	0.003201	-0.002590	-0.962539	-0.074120	0.243045	-0.094624
10774		4.572325	1.172676	8.576363	-0.000413	0.006296	-0.004354	-0.962540	-0.074120	0.243042	-0.094622
10775		4.589532	1.149679	8.545802	-0.000146	0.001587	-0.001467	-0.962534	-0.074121	0.243063	-0.094633
10776		4.584664	1.175579	8.523730	-0.004843	0.003214	-0.002418	-0.962531	-0.074100	0.243078	-0.094635
10777		4.594491	1.147857	8.569818	0.001200	0.001627	-0.003155	-0.962525	-0.074110	0.243097	-0.094639
10778		4.564970	1.150058	8.551686	-0.001784	0.004722	-0.002714	-0.962524	-0.074103	0.243104	-0.094644
10779		4.593738	1.148035	8.570198	-0.000438	0.004762	-0.004402	-0.962523	-0.074104	0.243108	-0.094642
10780		4.588715	1.174196	8.548174	-0.000292	0.003174	-0.002934	-0.962519	-0.074105	0.243121	-0.094646
10781		4.587487	1.150048	8.546851	0.001103	0.006283	-0.004525	-0.962519	-0.074113	0.243117	-0.094646
10782		4.610042	1.125511	8.540071	-0.000463	0.003227	-0.004450	-0.962517	-0.074116	0.243129	-0.094643
10783		4.592832	1.173268	8.572517	0.002596	0.004735	-0.004745	-0.962515	-0.074132	0.243131	-0.094643
10784		4.609214	1.126062	8.540445	-0.000097	0.004656	-0.001371	-0.962512	-0.074132	0.243137	-0.094656
10785		4.568098	1.174039	8.578429	-0.000414	0.006296	-0.004353	-0.962513	-0.074133	0.243134	-0.094654
10786		4.589772	1.124889	8.570211	-0.003107	0.006217	-0.000979	-0.962513	-0.074117	0.243134	-0.094666
10787		4.572311	1.172242	8.602833	-0.001906	0.007844	-0.004133	-0.962516	-0.074109	0.243124	-0.094665
10788		4.583903	1.151006	8.548645	0.000909	0.004801	-0.006089	-0.962515	-0.074119	0.243127	-0.094657
10789		4.601751	1.152525	8.519697	-0.000414	0.006296	-0.004353	-0.962516	-0.074120	0.243124	-0.094656
10790		4.559691	1.176125	8.556218	-0.001906	0.007843	-0.004134	-0.962519	-0.074112	0.243115	-0.094654
10791		4.611330	1.149380	8.567837	-0.000438	0.004761	-0.004402	-0.962518	-0.074114	0.243119	-0.094652
10792		4.587021	1.150132	8.573514	0.004308	0.006205	-0.003352	-0.962517	-0.074136	0.243115	-0.094661
10793		4.586386	1.150379	8.573820	-0.001736	0.007791	-0.002618	-0.962519	-0.074127	0.243106	-0.094667
10794		4.574222	1.129525	8.525078	0.000909	0.004801	-0.006089	-0.962518	-0.074138	0.243109	-0.094659
10795		4.579858	1.152472	8.550615	-0.000414	0.006296	-0.004353	-0.962519	-0.074138	0.243106	-0.094658
10796		4.602913	1.152424	8.545525	0.002329	0.009444	-0.007630	-0.962524	-0.074155	0.243085	-0.094647
10797		4.578362	1.153280	8.551307	0.000933	0.006335	-0.006040	-0.962525	-0.074164	0.243080	-0.094639
10798		4.583160	1.151875	8.575345	-0.000414	0.006295	-0.004354	-0.962526	-0.074165	0.243077	-0.094639
10799		4.577175	1.153567	8.551904	-0.003448	0.006321	-0.004012	-0.962528	-0.074151	0.243075	-0.094636
10800		4.600926	1.177603	8.548428	-0.000682	0.011004	-0.007240	-0.962536	-0.074151	0.243048	-0.094622
10801		4.574860	1.129608	8.551148	0.000910	0.004801	-0.006088	-0.962536	-0.074161	0.243051	-0.094613
10802		4.580266	1.152515	8.576805	-0.002029	0.010964	-0.005553	-0.962543	-0.074152	0.243026	-0.094606
10803		4.603345	1.152216	8.571750	-0.000268	0.004708	-0.002886	-0.962541	-0.074153	0.243031	-0.094612
10804		4.579021	1.152705	8.577444	-0.002101	0.006360	-0.005698	-0.962543	-0.074147	0.243028	-0.094602
10805		4.572968	1.154493	8.554029	-0.000390	0.007830	-0.004305	-0.962546	-0.074147	0.243018	-0.094602
10806		4.590731	1.155863	8.525189	-0.001931	0.006308	-0.004183	-0.962547	-0.074140	0.243016	-0.094600
10807		4.571716	1.154641	8.554679	-0.002100	0.006360	-0.005698	-0.962550	-0.074134	0.243012	-0.094591
10808		4.600929	1.176828	8.574953	-0.004749	0.009349	-0.002229	-0.962555	-0.074110	0.242998	-0.094597
10809		4.593347	1.129718	8.548507	-0.000414	0.006295	-0.004353	-0.962555	-0.074111	0.242995	-0.094595
10810		4.588127	1.155903	8.526585	-0.000414	0.006295	-0.004353	-0.962556	-0.074112	0.242992	-0.094595
10811		4.574556	1.152981	8.579789	-0.003472	0.004785	-0.004061	-0.962556	-0.074098	0.242998	-0.094591
10812		4.592461	1.154153	8.550913	-0.003448	0.006319	-0.004012	-0.962558	-0.074084	0.242997	-0.094589
10813		4.544332	1.154877	8.562023	-0.001954	0.004773	-0.004231	-0.962557	-0.074078	0.243002	-0.094586
10814		4.586109	1.155807	8.527684	-0.001954	0.004773	-0.004231	-0.962557	-0.074071	0.243007	-0.094582
10815		4.590883	1.154330	8.551737	0.000957	0.007870	-0.005990	-0.962560	-0.074080	0.242994	-0.094576
10816		4.565686	1.130382	8.555948	-0.004796	0.006279	-0.002327	-0.962561	-0.074057	0.242995	-0.094580
10817		4.595098	1.152660	8.576114	0.001249	0.004696	-0.003056	-0.962559	-0.074066	0.242999	-0.094586
10818		4.589348	1.154397	8.552551	-0.003495	0.003250	-0.004110	-0.962557	-0.074052	0.243013	-0.094581
10819		4.588750	1.154383	8.552874	-0.002054	0.009429	-0.005601	-0.962563	-0.074045	0.242995	-0.094573
10820		4.594131	1.177094	8.578560	-0.001762	0.006255	-0.002667	-0.962563	-0.074037	0.242994	-0.094579
10821		4.562915	1.130360	8.557429	-0.003448	0.006319	-0.004013	-0.962565	-0.074023	0.242992	-0.094576
10822		4.592098	1.152696	8.577716	-0.000368	0.009364	-0.004255	-0.962569	-0.074022	0.242974	-0.094577
10823		4.585297	1.130080	8.552780	-0.001762	0.006254	-0.002667	-0.962570	-0.074015	0.242973	-0.094583
10824		4.585440	1.154598	8.554620	0.000935	0.006336	-0.006038	-0.962571	-0.074023	0.242968	-0.094574
10825		4.584111	1.130504	8.553360	-0.000414	0.006295	-0.004352	-0.962572	-0.074024	0.242965	-0.094573
10826		4.565799	1.153584	8.584371	-0.003448	0.006318	-0.004013	-0.962574	-0.074010	0.242963	-0.094570
10827		4.583664	1.154912	8.555529	-0.000414	0.006295	-0.004352	-0.962574	-0.074010	0.242960	-0.094569
10828		4.577788	1.156677	8.532035	-0.001954	0.004772	-0.004232	-0.962574	-0.074004	0.242965	-0.094566
10829		4.558950	1.155441	8.561380	-0.000291	0.003174	-0.002934	-0.962570	-0.074005	0.242978	-0.094570
10830		4.577091	1.156951	8.532372	0.001058	0.003215	-0.004619	-0.962567	-0.074015	0.242989	-0.094568
10831		4.581349	1.131036	8.554769	-0.001617	0.004667	-0.001200	-0.962565	-0.074007	0.242996	-0.094580
10832		4.581506	1.155293	8.556634	-0.003426	0.007852	-0.003965	-0.962568	-0.073992	0.242987	-0.094578
10833		4.575636	1.156990	8.533147	-0.000459	0.003226	-0.004450	-0.962565	-0.073994	0.242999	-0.094575
10834		4.580656	1.155484	8.557063	-0.000459	0.003226	-0.004450	-0.962562	-0.073996	0.243011	-0.094572
10835		4.580339	1.155690	8.557205	0.001226	0.003162	-0.003103	-0.962558	-0.074005	0.243022	-0.094577
10836		4.573969	1.133184	8.532032	-0.000291	0.003174	-0.002934	-0.962554	-0.074006	0.243036	-0.094582
10837		4.578880	1.131554	8.556022	-0.001763	0.006254	-0.002667	-0.962555	-0.073998	0.243034	-0.094587
10838		4.602974	1.155522	8.552430	-0.001808	0.003185	-0.002765	-0.962552	-0.073992	0.243048	-0.094591
10839		4.578705	1.155975	8.558041	-0.000582	0.006348	-0.005868	-0.962553	-0.073994	0.243044	-0.094582
10840		4.602059	1.155714	8.552896	-0.001808	0.003185	-0.002765	-0.962550	-0.073988	0.243057	-0.094586
10841		4.601689	1.155687	8.553099	-0.001786	0.004719	-0.002716	-0.962549	-0.073981	0.243063	-0.094591
10842		4.594920	1.132893	8.528182	-0.005067	0.010984	-0.005214	-0.962557	-0.073958	0.243040	-0.094583
10843		4.571169	1.157559	8.535464	-0.000291	0.003174	-0.002934	-0.962553	-0.073959	0.243052	-0.094588
10844		4.605154	1.153834	8.577894	-0.003259	0.007799	-0.002449	-0.962556	-0.073943	0.243044	-0.094593
10845		4.598401	1.131083	8.552964	-0.001909	0.007841	-0.004134	-0.962559	-0.073936	0.243035	-0.094592
10846		4.568679	1.133105	8.534876	-0.001786	0.004719	-0.002716	-0.962558	-0.073929	0.243041	-0.094596
10847		4.591897	1.132810	8.529821	-0.002245	0.007946	-0.007166	-0.962563	-0.073923	0.243029	-0.094581
10848		4.591311	1.132906	8.530124	-0.000101	0.004656	-0.001369	-0.962560	-0.073923	0.243035	-0.094593
10849		4.573010	1.155961	8.561087	-0.003784	0.006422	-0.007046	-0.962563	-0.073910	0.243032	-0.094576
10850		4.590130	1.132919	8.530758	-0.001742	0.007788	-0.002618	-0.962566	-0.073902	0.243023	-0.094582
10851		4.590205	1.157245	8.532657	-0.001764	0.006253	-0.002667	-0.962566	-0.073894	0.243022	-0.094588
10852		4.552634	1.154612	8.591222	-0.002099	0.006359	-0.005699	-0.962568	-0.073888	0.243019	-0.094579
10853		4.598964	1.129693	8.579252	-0.000414	0.006295	-0.004351	-0.962569	-0.073889	0.243016	-0.094577
10854		4.570003	1.156159	8.562666	-0.001954	0.004772	-0.004232	-0.962568	-0.073882	0.243021	-0.094574
10855		4.587354	1.133206	8.532213	-0.000269	0.004708	-0.002885	-0.962567	-0.073883	0.243026	-0.094579
10856		4.569031	1.156459	8.563144	0.000936	0.006337	-0.006036	-0.962568	-0.073892	0.243021	-0.094572
10857		4.591573	1.131970	8.556514	-0.000080	0.006190	-0.001320	-0.962567	-0.073891	0.243020	-0.094586
10858		4.586441	1.158204	8.534551	0.000914	0.004803	-0.006085	-0.962566	-0.073901	0.243023	-0.094577
10859		4.590538	1.132409	8.557011	-0.000247	0.006242	-0.002836	-0.962566	-0.073901	0.243020	-0.094583
10860		4.595979	1.155200	8.582630	-0.000247	0.006242	-0.002836	-0.962566	-0.073901	0.243019	-0.094590
10861		4.570822	1.131386	8.586735	0.001125	0.007819	-0.004471	-0.962568	-0.073908	0.243007	-0.094591
10862		4.583364	1.134698	8.534159	0.001103	0.006284	-0.004520	-0.962569	-0.073916	0.243003	-0.094590
10863		4.607363	1.158992	8.530612	0.001249	0.004697	-0.003053	-0.962566	-0.073924	0.243008	-0.094597
10864		4.582813	1.159586	8.536312	-0.000683	0.011003	-0.007236	-0.962574	-0.073925	0.242981	-0.094584
10865		4.563570	1.158368	8.565798	-0.001786	0.004718	-0.002717	-0.962573	-0.073918	0.242987	-0.094589
10866		4.586802	1.158064	8.560770	-0.002077	0.007892	-0.005650	-0.962577	-0.073911	0.242976	-0.094580
10867		4.603981	1.135147	8.530439	-0.000247	0.006242	-0.002836	-0.962577	-0.073911	0.242974	-0.094587
10868		4.580345	1.159939	8.537589	-0.000269	0.004708	-0.002885	-0.962575	-0.073912	0.242979	-0.094593
10869		4.584515	1.134050	8.560023	-0.000436	0.004760	-0.004401	-0.962574	-0.073914	0.242984	-0.094591
10870		4.583992	1.134214	8.560281	-0.000414	0.006295	-0.004351	-0.962574	-0.073914	0.242981	-0.094590
10871		4.607215	1.134150	8.555236	0.000937	0.006337	-0.006035	-0.962576	-0.073923	0.242976	-0.094582
10872		4.583560	1.159035	8.562375	-0.000102	0.004655	-0.001369	-0.962573	-0.073923	0.242983	-0.094595
10873		4.577710	1.160718	8.538896	-0.001744	0.007786	-0.002619	-0.962575	-0.073915	0.242974	-0.094602
10874		4.581683	1.134622	8.561463	-0.003449	0.006315	-0.004016	-0.962577	-0.073901	0.242972	-0.094600
10875		4.575869	1.136389	8.537955	0.001082	0.004750	-0.004568	-0.962575	-0.073910	0.242976	-0.094598
10876		4.576100	1.160880	8.539737	-0.001786	0.004718	-0.002717	-0.962574	-0.073902	0.242982	-0.094603
10877		4.585559	1.133182	8.585965	-0.001953	0.004770	-0.004233	-0.962573	-0.073896	0.242987	-0.094600
10878		4.579745	1.135086	8.562438	0.002621	0.006274	-0.004686	-0.962573	-0.073912	0.242982	-0.094600
10879		4.579873	1.159798	8.564244	-0.000768	0.004865	-0.007432	-0.962574	-0.073915	0.242985	-0.094583
10880		4.578742	1.135607	8.562906	-0.000103	0.004655	-0.001369	-0.962571	-0.073915	0.242991	-0.094596
10881		4.592091	1.163192	8.511878	0.000958	0.007871	-0.005986	-0.962574	-0.073923	0.242979	-0.094589
10882		4.572215	1.137742	8.539732	-0.000414	0.006294	-0.004351	-0.962575	-0.073924	0.242976	-0.094588
10883		4.572427	1.162329	8.541507	0.001061	0.003216	-0.004617	-0.962572	-0.073933	0.242987	-0.094586
10884		4.581853	1.134896	8.587716	-0.000581	0.006347	-0.005867	-0.962573	-0.073936	0.242983	-0.094579
10885		4.575972	1.136825	8.564225	0.001103	0.006284	-0.004519	-0.962574	-0.073944	0.242979	-0.094578
10886		4.599274	1.136886	8.559145	0.002600	0.004740	-0.004735	-0.962572	-0.073960	0.242982	-0.094578
10887		4.581005	1.160295	8.589945	0.002745	0.003154	-0.003268	-0.962567	-0.073976	0.242993	-0.094584
10888		4.603730	1.135948	8.583268	0.001269	0.006232	-0.003003	-0.962567	-0.073983	0.242990	-0.094591
10889		4.574632	1.162579	8.566668	0.000958	0.007871	-0.005986	-0.962570	-0.073992	0.242978	-0.094585
10890		4.592596	1.164240	8.537857	0.001248	0.004698	-0.003052	-0.962567	-0.074000	0.242983	-0.094591
10891		4.572814	1.138633	8.565671	-0.001746	0.007785	-0.002620	-0.962570	-0.073991	0.242974	-0.094597
10892		4.596066	1.138465	8.560658	0.001082	0.004750	-0.004568	-0.962568	-0.074000	0.242977	-0.094597
10893		4.596200	1.163053	8.562468	-0.000415	0.006294	-0.004352	-0.962569	-0.074001	0.242974	-0.094595
10894		4.595609	1.163287	8.562753	0.001103	0.006284	-0.004519	-0.962569	-0.074009	0.242971	-0.094595
10895		4.571244	1.163781	8.568313	-0.002118	0.004821	-0.005750	-0.962570	-0.074004	0.242975	-0.094584
10896		4.593973	1.139192	8.561685	-0.000104	0.004655	-0.001369	-0.962567	-0.074004	0.242981	-0.094597
10897		4.593417	1.139342	8.561963	0.001289	0.007766	-0.002953	-0.962568	-0.074010	0.242971	-0.094606
10898		4.588239	1.165608	8.540013	0.001248	0.004698	-0.003051	-0.962566	-0.074018	0.242976	-0.094612
10899		4.569211	1.164407	8.569312	-0.002118	0.004821	-0.005750	-0.962566	-0.074013	0.242980	-0.094602
10900		4.591208	1.115522	8.561168	-0.000415	0.006293	-0.004352	-0.962567	-0.074014	0.242977	-0.094602
10901		4.591983	1.164466	8.564538	0.001083	0.004750	-0.004567	-0.962565	-0.074023	0.242980	-0.094601
10902		4.590876	1.140413	8.563184	0.001083	0.004750	-0.004567	-0.962564	-0.074032	0.242984	-0.094599
10903		4.585751	1.166843	8.541181	0.004303	0.006213	-0.003335	-0.962562	-0.074055	0.242979	-0.094609
10904		4.572047	1.164156	8.594194	-0.000476	0.001691	-0.004499	-0.962558	-0.074058	0.242998	-0.094605
10905		4.608808	1.167059	8.536241	-0.000415	0.006293	-0.004352	-0.962559	-0.074058	0.242995	-0.094604
10906		4.583743	1.143159	8.540262	-0.000415	0.006293	-0.004352	-0.962559	-0.074059	0.242992	-0.094603
10907		4.583167	1.143296	8.540553	-0.000250	0.006241	-0.002836	-0.962559	-0.074059	0.242989	-0.094609
10908		4.588537	1.166154	8.566155	-0.000600	0.004811	-0.005917	-0.962559	-0.074062	0.242993	-0.094600
10909		4.587991	1.166374	8.566418	-0.000580	0.006345	-0.005868	-0.962561	-0.074063	0.242989	-0.094592
10910		4.586817	1.142211	8.565119	-0.000435	0.004759	-0.004401	-0.962560	-0.074064	0.242994	-0.094589
10911		4.580969	1.144200	8.541611	0.002475	0.007861	-0.006151	-0.962562	-0.074080	0.242981	-0.094584
10912		4.561802	1.143098	8.570947	-0.000105	0.004654	-0.001369	-0.962559	-0.074080	0.242987	-0.094597
10913		4.585266	1.142923	8.565854	-0.000455	0.003225	-0.004450	-0.962557	-0.074082	0.242999	-0.094594
10914		4.585444	1.167306	8.567655	-0.003450	0.006311	-0.004020	-0.962559	-0.074068	0.242997	-0.094591
10915		4.574370	1.170653	8.520393	-0.000415	0.006293	-0.004352	-0.962559	-0.074069	0.242994	-0.094590
10916		4.583698	1.143210	8.566655	0.001083	0.004750	-0.004567	-0.962558	-0.074078	0.242998	-0.094589
10917		4.577933	1.145171	8.543108	0.001103	0.006284	-0.004518	-0.962558	-0.074086	0.242994	-0.094589
10918		4.607062	1.167794	8.563469	-0.000250	0.006240	-0.002836	-0.962558	-0.074086	0.242992	-0.094596
10919		4.582005	1.144018	8.567453	0.002456	0.006327	-0.006200	-0.962559	-0.074103	0.242986	-0.094589
10920		4.576310	1.145909	8.543879	-0.001808	0.003181	-0.002768	-0.962555	-0.074097	0.243000	-0.094593
10921		4.599833	1.145702	8.538773	-0.000455	0.003224	-0.004450	-0.962553	-0.074099	0.243011	-0.094590
10922		4.556308	1.120540	8.571736	0.002620	0.006275	-0.004683	-0.962553	-0.074114	0.243006	-0.094590
10923		4.599541	1.170663	8.540745	-0.000455	0.003224	-0.004450	-0.962550	-0.074117	0.243018	-0.094587
10924		4.598471	1.146513	8.539398	0.001267	0.006232	-0.003002	-0.962549	-0.074123	0.243015	-0.094594
10925		4.574055	1.146991	8.544941	-0.000415	0.006292	-0.004352	-0.962550	-0.074124	0.243012	-0.094593
10926		4.578620	1.145594	8.569052	0.000957	0.007870	-0.005985	-0.962553	-0.074133	0.243000	-0.094586
10927		4.602336	1.170037	8.565704	0.000957	0.007870	-0.005985	-0.962556	-0.074141	0.242988	-0.094580
10928		4.595273	1.123241	8.539082	-0.000435	0.004758	-0.004401	-0.962555	-0.074142	0.242992	-0.094577
10929		4.576677	1.146332	8.569991	-0.002078	0.007886	-0.005654	-0.962559	-0.074136	0.242982	-0.094569
10930		4.595320	1.172242	8.542800	0.001247	0.004698	-0.003050	-0.962557	-0.074144	0.242986	-0.094575
10931		4.574883	1.122441	8.568999	0.000957	0.007870	-0.005985	-0.962560	-0.074152	0.242974	-0.094569
10932		4.599285	1.171150	8.567190	-0.000415	0.006292	-0.004352	-0.962561	-0.074153	0.242972	-0.094568
10933		4.567801	1.100093	8.544269	-0.001933	0.006300	-0.004187	-0.962562	-0.074146	0.242969	-0.094566
10934		4.569111	1.173326	8.549206	0.001083	0.004750	-0.004566	-0.962560	-0.074155	0.242973	-0.094565
10935		4.591744	1.149038	8.542677	0.000957	0.007870	-0.005984	-0.962564	-0.074163	0.242961	-0.094558
10936		4.595773	1.123232	8.565194	-0.000107	0.004654	-0.001369	-0.962561	-0.074163	0.242967	-0.094572
10937		4.572015	1.148012	8.572254	-0.000744	0.006396	-0.007385	-0.962563	-0.074166	0.242962	-0.094556
10938		4.619167	1.147621	8.562041	-0.001789	0.004714	-0.002720	-0.962562	-0.074159	0.242968	-0.094560
10939		4.566438	1.174185	8.550516	-0.000271	0.004706	-0.002885	-0.962560	-0.074159	0.242973	-0.094566
10940		4.589308	1.149613	8.543909	-0.001808	0.003180	-0.002769	-0.962557	-0.074153	0.242987	-0.094569
10941		4.570227	1.148282	8.573171	-0.000416	0.006292	-0.004352	-0.962558	-0.074154	0.242983	-0.094568
10942		4.616812	1.123526	8.561390	-0.000107	0.004654	-0.001369	-0.962555	-0.074154	0.242990	-0.094582
10943		4.564005	1.150180	8.549885	-0.000579	0.006344	-0.005869	-0.962556	-0.074155	0.242986	-0.094573
10944		4.568023	1.124264	8.572419	-0.001770	0.006248	-0.002671	-0.962557	-0.074147	0.242985	-0.094578
10945		4.611283	1.174278	8.541489	0.002910	0.003104	-0.001747	-0.962551	-0.074163	0.242997	-0.094592
10946		4.562740	1.150767	8.550481	0.000882	0.001734	-0.006180	-0.962547	-0.074174	0.243014	-0.094582
10947		4.591440	1.149085	8.569202	-0.002116	0.004817	-0.005753	-0.962547	-0.074169	0.243018	-0.094572
10948		4.585911	1.150834	8.545568	-0.000308	0.001638	-0.002983	-0.962542	-0.074171	0.243038	-0.094575
10949		4.586137	1.175232	8.547323	-0.001770	0.006247	-0.002672	-0.962542	-0.074164	0.243037	-0.094581
10950		4.542539	1.149714	8.580288	-0.001952	0.004765	-0.004237	-0.962542	-0.074157	0.243042	-0.094578
10951		4.609067	1.175316	8.542542	0.003937	0.003253	-0.006460	-0.962538	-0.074183	0.243051	-0.094570
10952		4.565727	1.150140	8.575320	-0.000145	0.001586	-0.001467	-0.962532	-0.074184	0.243072	-0.094581
10953		4.578937	1.153310	8.522613	-0.000453	0.003224	-0.004451	-0.962529	-0.074186	0.243083	-0.094578
10954		4.578275	1.153433	8.522952	-0.002042	0.010953	-0.005557	-0.962536	-0.074178	0.243058	-0.094572
10955		4.607191	1.175922	8.543470	-0.001789	0.004713	-0.002721	-0.962535	-0.074171	0.243064	-0.094576
10956		4.582255	1.151847	8.547393	-0.000253	0.006239	-0.002836	-0.962535	-0.074171	0.243062	-0.094583
10957		4.591485	1.124363	8.593707	0.001265	0.006232	-0.003000	-0.962534	-0.074178	0.243059	-0.094590
10958		4.586498	1.150578	8.571648	-0.000471	0.001690	-0.004500	-0.962530	-0.074181	0.243079	-0.094586
10959		4.580990	1.152367	8.548001	-0.000271	0.004705	-0.002885	-0.962528	-0.074181	0.243084	-0.094591
10960		4.580618	1.152682	8.548157	0.004264	0.003149	-0.003427	-0.962523	-0.074205	0.243094	-0.094598
10961		4.580170	1.153025	8.548352	-0.000416	0.006291	-0.004352	-0.962524	-0.074206	0.243091	-0.094597
10962		4.584945	1.151290	8.572383	-0.002836	0.003031	0.001943	-0.962518	-0.074189	0.243108	-0.094622
10963		4.579400	1.152817	8.548792	-0.002115	0.004817	-0.005754	-0.962518	-0.074184	0.243112	-0.094612
10964		4.584128	1.151330	8.572815	0.001247	0.004698	-0.003049	-0.962516	-0.074192	0.243116	-0.094618
10965		4.559830	1.151769	8.578238	-0.000434	0.004757	-0.004401	-0.962515	-0.074194	0.243121	-0.094616
10966		4.601462	1.128706	8.542601	-0.000145	0.001586	-0.001467	-0.962509	-0.074194	0.243142	-0.094627
10967		4.583146	1.151659	8.573296	-0.001807	0.003179	-0.002770	-0.962506	-0.074188	0.243155	-0.094630
10968		4.572400	1.155029	8.525890	-0.000434	0.004757	-0.004401	-0.962505	-0.074189	0.243159	-0.094627
10969		4.601115	1.153490	8.544605	0.004246	0.001616	-0.003475	-0.962498	-0.074214	0.243177	-0.094634
10970		4.572300	1.179878	8.527749	-0.003126	0.006202	-0.000992	-0.962498	-0.074197	0.243177	-0.094646
10971		4.576959	1.178118	8.551844	-0.003796	0.004875	-0.007107	-0.962499	-0.074186	0.243181	-0.094627
10972		4.599140	1.129202	8.543786	-0.000091	0.006187	-0.001320	-0.962498	-0.074185	0.243181	-0.094641
10973		4.580562	1.152052	8.574624	-0.003145	0.004668	-0.001041	-0.962496	-0.074169	0.243188	-0.094652
10974		4.574377	1.129317	8.549493	-0.000434	0.004757	-0.004401	-0.962496	-0.074170	0.243192	-0.094650
10975		4.597894	1.129216	8.544455	-0.002151	0.001749	-0.005853	-0.962492	-0.074167	0.243211	-0.094637
10976		4.603303	1.152046	8.569987	-0.000434	0.004757	-0.004401	-0.962491	-0.074168	0.243215	-0.094635
10977		4.549974	1.154488	8.556780	0.004282	0.004684	-0.003376	-0.962488	-0.074191	0.243218	-0.094643
10978		4.597812	1.178645	8.548147	-0.001790	0.004712	-0.002722	-0.962487	-0.074184	0.243224	-0.094647
10979		4.573021	1.154482	8.551981	-0.001807	0.003178	-0.002771	-0.962484	-0.074177	0.243237	-0.094650
10980		4.577888	1.152804	8.575951	-0.001807	0.003178	-0.002771	-0.962480	-0.074171	0.243250	-0.094654
10981		4.595571	1.129780	8.545630	-0.003290	0.006253	-0.002509	-0.962481	-0.074156	0.243250	-0.094658
10982		4.595651	1.153875	8.547494	-0.004663	0.004674	-0.000878	-0.962480	-0.074132	0.243258	-0.094667
10983		4.571439	1.154039	8.552887	0.001228	0.003165	-0.003097	-0.962476	-0.074141	0.243269	-0.094673
10984		4.594780	1.154025	8.547941	-0.000399	0.007825	-0.004303	-0.962479	-0.074141	0.243259	-0.094672
10985		4.569914	1.130228	8.551759	0.004247	0.001617	-0.003473	-0.962472	-0.074165	0.243277	-0.094679
10986		4.593873	1.154670	8.548342	-0.002079	0.007883	-0.005656	-0.962476	-0.074159	0.243266	-0.094670
10987		4.593427	1.154807	8.548563	0.001373	0.001579	-0.001630	-0.962469	-0.074167	0.243286	-0.094682
10988		4.593175	1.155083	8.548661	0.000904	0.003268	-0.006130	-0.962467	-0.074178	0.243296	-0.094673
10989		4.597438	1.129407	8.571037	0.001066	0.003216	-0.004614	-0.962463	-0.074188	0.243306	-0.094671
10990		4.568663	1.155833	8.554128	-0.000290	0.003171	-0.002934	-0.962460	-0.074189	0.243319	-0.094675
10991		4.597309	1.154080	8.572930	-0.000272	0.004705	-0.002885	-0.962458	-0.074190	0.243324	-0.094680
10992		4.586695	1.157462	8.525466	-0.000145	0.001586	-0.001467	-0.962451	-0.074190	0.243345	-0.094691
10993		4.596013	1.129736	8.571758	-0.005115	0.007896	-0.005330	-0.962456	-0.074169	0.243336	-0.094681
10994		4.590877	1.155867	8.549790	0.002584	0.003210	-0.004777	-0.962452	-0.074186	0.243346	-0.094680
10995		4.561546	1.158000	8.531299	-0.000290	0.003171	-0.002934	-0.962449	-0.074188	0.243359	-0.094685
10996		4.590101	1.156376	8.550137	0.000939	0.006336	-0.006031	-0.962450	-0.074197	0.243354	-0.094678
10997		4.594786	1.154988	8.574160	-0.000452	0.003223	-0.004451	-0.962447	-0.074199	0.243366	-0.094675
10998		4.584152	1.158383	8.526709	-0.001970	0.003229	-0.004288	-0.962445	-0.074194	0.243378	-0.094671
10999		4.589408	1.181229	8.552305	0.001263	0.006232	-0.002998	-0.962444	-0.074202	0.243375	-0.094678
11000		4.583142	1.158491	8.527237	-0.004809	0.006258	-0.002347	-0.962446	-0.074178	0.243375	-0.094682
11001		4.587324	1.132360	8.549718	-0.000128	0.003119	-0.001418	-0.962441	-0.074179	0.243389	-0.094694
11002		4.563556	1.156947	8.556703	-0.003777	0.006407	-0.007059	-0.962445	-0.074166	0.243385	-0.094676
11003		4.610764	1.156406	8.546648	-0.002985	0.004614	0.000474	-0.962442	-0.074150	0.243394	-0.094694
11004		4.586495	1.156317	8.552080	-0.004826	0.004724	-0.002397	-0.962441	-0.074128	0.243402	-0.094697
11005		4.586128	1.156083	8.552308	-0.003325	0.003184	-0.002609	-0.962439	-0.074114	0.243416	-0.094699
11006		4.586305	1.180138	8.554120	-0.006344	0.004730	-0.002234	-0.962439	-0.074084	0.243424	-0.094701
11007		4.589909	1.129522	8.575056	-0.003632	0.004822	-0.005592	-0.962439	-0.074072	0.243429	-0.094689
11008		4.589596	1.129384	8.575242	-0.003181	0.001598	-0.001142	-0.962434	-0.074058	0.243451	-0.094699
11009		4.584704	1.155135	8.553200	-0.004826	0.004724	-0.002397	-0.962433	-0.074036	0.243459	-0.094701
11010		4.589390	1.153369	8.577268	-0.002114	0.004816	-0.005754	-0.962434	-0.074031	0.243463	-0.094691
11011		4.630823	1.130295	8.541875	-0.003598	0.007889	-0.005493	-0.962438	-0.074017	0.243453	-0.094682
11012		4.616975	1.151338	8.596696	-0.006617	0.009435	-0.005118	-0.962446	-0.073987	0.243438	-0.094671
11013		4.639761	1.150704	8.592174	-0.009764	0.014100	-0.006161	-0.962460	-0.073940	0.243401	-0.094654
11014		4.666645	1.123821	8.610185	-0.014736	0.020408	-0.010025	-0.962486	-0.073871	0.243334	-0.094616
11015		4.711225	1.073856	8.597952	-0.018044	0.025125	-0.012584	-0.962520	-0.073786	0.243245	-0.094564
11016		4.685156	1.097407	8.606308	-0.021625	0.034547	-0.018026	-0.962570	-0.073686	0.243110	-0.094487
11017		4.653179	1.122509	8.591283	-0.024902	0.042330	-0.020484	-0.962631	-0.073569	0.242937	-0.094398
11018		4.539376	1.175916	8.545866	-0.020138	0.046860	-0.019300	-0.962695	-0.073471	0.242742	-0.094322
11019		4.534713	1.150345	8.546625	-0.027586	0.045298	-0.017030	-0.962759	-0.073335	0.242558	-0.094248
11020		4.579040	1.172980	8.540312	-0.022903	0.042162	-0.016096	-0.962817	-0.073223	0.242388	-0.094182
11021		4.550860	1.147722	8.545963	-0.020027	0.042204	-0.017933	-0.962875	-0.073126	0.242215	-0.094111
11022		4.571013	1.146556	8.543000	-0.021243	0.040567	-0.014791	-0.962929	-0.073021	0.242053	-0.094052
11023		4.543935	1.169885	8.551836	-0.021069	0.042046	-0.013223	-0.962985	-0.072914	0.241884	-0.094002
11024		4.529615	1.147671	8.504707	-0.022587	0.042049	-0.013064	-0.963041	-0.072799	0.241715	-0.093951
11025		4.496572	1.124049	8.486375	-0.016212	0.040390	-0.010718	-0.963091	-0.072714	0.241553	-0.093918
11026		4.326666	1.230135	8.405964	-0.009853	0.037199	-0.008423	-0.963134	-0.072658	0.241404	-0.093902
11027		4.431410	1.241389	8.560723	-0.010419	0.021493	0.001835	-0.963154	-0.072596	0.241335	-0.093926
11028		4.474834	1.094259	8.541614	-0.004105	0.013703	0.003976	-0.963160	-0.072566	0.241303	-0.093966
11029		4.527587	1.140596	8.559268	-0.001098	0.010628	0.003556	-0.963163	-0.072553	0.241283	-0.094004
11030		4.607831	1.112144	8.590743	-0.002916	0.012273	0.000732	-0.963169	-0.072533	0.241254	-0.094027
11031		4.552981	1.065175	8.574270	-0.001225	0.013748	0.002143	-0.963176	-0.072518	0.241219	-0.094060
11032		4.571530	1.115389	8.549428	0.000010	0.016918	-0.000945	-0.963187	-0.072512	0.241166	-0.094081
11033		4.551775	1.138297	8.580632	0.001341	0.013902	-0.002723	-0.963196	-0.072515	0.241126	-0.094093
11034		4.520872	1.115795	8.560967	-0.002983	0.021526	-0.000473	-0.963214	-0.072492	0.241053	-0.094116
11035		4.543987	1.164193	8.560213	-0.003327	0.018567	-0.003611	-0.963230	-0.072472	0.240993	-0.094121
11036		4.522440	1.113720	8.586654	-0.002998	0.019992	-0.000525	-0.963246	-0.072448	0.240927	-0.094142
11037		4.521196	1.137840	8.589248	-0.002998	0.019992	-0.000525	-0.963262	-0.072426	0.240861	-0.094163
11038		4.518940	1.113225	8.588560	-0.002827	0.021471	0.001044	-0.963279	-0.072401	0.240789	-0.094192
11039		4.539138	1.015724	8.577877	0.002920	0.020029	-0.002670	-0.963294	-0.072409	0.240719	-0.094209
11040		4.568802	1.135792	8.605845	0.000321	0.016809	0.002090	-0.963304	-0.072401	0.240668	-0.094245
11041		4.551260	1.092056	8.531934	-0.004643	0.023115	-0.001782	-0.963325	-0.072370	0.240587	-0.094260
11042		4.563905	1.062776	8.602706	0.007447	0.016951	-0.003242	-0.963335	-0.072402	0.240530	-0.094279
11043		4.534561	1.138482	8.589717	0.005551	0.026314	-0.007324	-0.963359	-0.072425	0.240426	-0.094280
11044		4.503944	1.165267	8.573594	0.002965	0.024627	-0.002513	-0.963380	-0.072430	0.240334	-0.094300
11045		4.529831	1.115155	8.590172	0.004454	0.021557	-0.002773	-0.963396	-0.072445	0.240256	-0.094319
11046		4.557125	1.138106	8.611729	0.002964	0.024626	-0.002513	-0.963417	-0.072452	0.240164	-0.094340
11047		4.547081	0.994330	8.579095	0.007241	0.027788	-0.005910	-0.963441	-0.072480	0.240053	-0.094351
11048		4.524024	1.165627	8.596799	0.004512	0.027687	-0.002565	-0.963465	-0.072492	0.239946	-0.094374
11049		4.483061	1.138657	8.653957	0.004218	0.029327	-0.005548	-0.963492	-0.072505	0.239829	-0.094383
11050		4.511343	1.022372	8.565510	0.006185	0.027629	-0.001203	-0.963514	-0.072523	0.239722	-0.094415
11051		4.537948	1.045423	8.587441	0.002743	0.033929	-0.005238	-0.963547	-0.072526	0.239584	-0.094427
11052		4.509742	0.973231	8.588851	0.008804	0.032380	-0.005907	-0.963577	-0.072560	0.239450	-0.094441
11053		4.531969	1.047552	8.590338	0.014462	0.037123	-0.010920	-0.963612	-0.072625	0.239288	-0.094440
11054		4.490583	1.079065	8.526790	0.019019	0.037111	-0.011382	-0.963646	-0.072712	0.239124	-0.094442
11055		4.449933	1.126943	8.589074	0.021779	0.040275	-0.014621	-0.963684	-0.072814	0.238942	-0.094432
11056		4.503753	1.134009	8.504296	0.020828	0.035467	-0.008552	-0.963714	-0.072908	0.238787	-0.094449
11057		4.509624	1.108883	8.551850	0.026032	0.040367	-0.018115	-0.963753	-0.073035	0.238601	-0.094428
11058		4.546962	1.016500	8.513397	0.038240	0.046468	-0.019132	-0.963794	-0.073218	0.238379	-0.094418
11059		4.553146	1.066290	8.566150	0.040546	0.049787	-0.026923	-0.963843	-0.073420	0.238136	-0.094375
11060		4.530158	1.118718	8.599904	0.050752	0.052982	-0.032438	-0.963895	-0.073676	0.237871	-0.094319
11061		4.506740	1.171658	8.633717	0.049271	0.057580	-0.032136	-0.963952	-0.073923	0.237584	-0.094264
11062		4.474077	1.252044	8.621290	0.046042	0.053036	-0.033501	-0.964005	-0.074157	0.237321	-0.094197
11063		4.469098	1.257278	8.623111	0.041634	0.052991	-0.031530	-0.964060	-0.074367	0.237060	-0.094135
11064		4.439841	1.213279	8.626451	0.035931	0.043652	-0.026670	-0.964102	-0.074550	0.236849	-0.094085
11065		4.462956	1.118780	8.640827	0.041696	0.042208	-0.030354	-0.964143	-0.074765	0.236640	-0.094023
11066		4.460135	1.172549	8.645087	0.044961	0.032908	-0.027908	-0.964170	-0.074998	0.236476	-0.093972
11067		4.438831	1.225020	8.677535	0.048090	0.025190	-0.026929	-0.964186	-0.075249	0.236348	-0.093925
11068		4.451421	1.257663	8.626909	0.045005	0.019062	-0.026822	-0.964196	-0.075487	0.236252	-0.093873
11069		4.370628	1.436454	8.604137	0.043634	0.019014	-0.025154	-0.964206	-0.075718	0.236156	-0.093827
11070		4.392720	1.416292	8.597959	0.035491	0.009491	-0.013918	-0.964202	-0.075901	0.236116	-0.093821
11071		4.366765	1.321998	8.596559	0.027062	0.001598	-0.005669	-0.964188	-0.076038	0.236121	-0.093842
11072		4.400810	1.345817	8.640565	0.029099	-0.009322	-0.000072	-0.964157	-0.076185	0.236181	-0.093887
11073		4.442948	1.203012	8.597497	0.020544	-0.014100	0.006755	-0.964121	-0.076285	0.236272	-0.093953
11074		4.420584	1.204963	8.601160	0.027640	-0.021629	0.001225	-0.964076	-0.076430	0.236392	-0.093996
11075		4.476614	1.327355	8.621704	0.026611	-0.015639	0.006112	-0.964035	-0.076560	0.236487	-0.094064
11076		4.468746	1.356194	8.574469	0.016307	-0.011123	0.010330	-0.964002	-0.076635	0.236567	-0.094144
11077		4.498099	1.330613	8.591578	0.006290	-0.008231	0.017538	-0.963972	-0.076651	0.236641	-0.094249
11078		4.502937	1.279791	8.612245	-0.001284	-0.005156	0.018377	-0.963949	-0.076629	0.236704	-0.094352
11079		4.470309	1.306021	8.570598	-0.005498	0.000887	0.022043	-0.963932	-0.076579	0.236742	-0.094470
11080		4.495307	1.352481	8.568921	-0.020404	-0.000715	0.026528	-0.963916	-0.076452	0.236797	-0.094591
11081		4.470074	1.252154	8.568189	-0.020369	0.003882	0.026666	-0.963906	-0.076323	0.236831	-0.094717
11082		4.501841	1.148359	8.605909	-0.026422	0.006957	0.027355	-0.963901	-0.076163	0.236853	-0.094840
11083		4.521499	1.195022	8.580833	-0.024593	0.008391	0.030288	-0.963896	-0.076007	0.236868	-0.094980
11084		4.502108	1.214745	8.611717	-0.020296	0.013074	0.026943	-0.963896	-0.075874	0.236858	-0.095111
11085		4.524996	1.211467	8.607969	-0.024803	0.019213	0.027577	-0.963905	-0.075715	0.236820	-0.095244
11086		4.527495	1.157801	8.630111	-0.026608	0.020844	0.024737	-0.963917	-0.075551	0.236773	-0.095362
11087		4.545494	1.180177	8.604285	-0.026582	0.023908	0.024831	-0.963934	-0.075384	0.236712	-0.095481
11088		4.491906	1.226920	8.594330	-0.034018	0.025410	0.027140	-0.963953	-0.075178	0.236649	-0.095604
11089		4.460856	1.200079	8.575259	-0.037636	0.027145	0.021412	-0.963979	-0.074960	0.236576	-0.095697
11090		4.439531	1.193696	8.605653	-0.050558	0.028465	0.030385	-0.964006	-0.074669	0.236507	-0.095818
11091		4.381053	1.215857	8.570423	-0.048988	0.017683	0.031419	-0.964020	-0.074389	0.236490	-0.095942
11092		4.389483	1.206486	8.619592	-0.059063	0.014446	0.038430	-0.964029	-0.074055	0.236497	-0.096086
11093		4.430804	1.127639	8.582840	-0.066866	0.008388	0.037457	-0.964035	-0.073688	0.236536	-0.096214
11094		4.407434	1.144427	8.590078	-0.072738	-0.000892	0.040788	-0.964030	-0.073293	0.236624	-0.096347
11095		4.412427	1.110283	8.613059	-0.076132	-0.006910	0.037849	-0.964021	-0.072888	0.236742	-0.096459
11096		4.351618	1.107579	8.551218	-0.071310	-0.010098	0.040340	-0.964005	-0.072505	0.236873	-0.096587
11097		4.313903	1.268518	8.596015	-0.075288	-0.025673	0.047863	-0.963968	-0.072102	0.237085	-0.096739
11098		4.388734	1.258700	8.581721	-0.090222	-0.028794	0.052278	-0.963930	-0.071624	0.237321	-0.096895
11099		4.311560	1.276178	8.549578	-0.108114	-0.038087	0.058300	-0.963883	-0.071058	0.237613	-0.097055
11100		4.272368	1.237856	8.580826	-0.122543	-0.049093	0.068522	-0.963823	-0.070416	0.237970	-0.097243
11101		4.301589	1.198456	8.573555	-0.151017	-0.066063	0.076833	-0.963748	-0.069636	0.238426	-0.097432
11102		4.301646	1.076846	8.665402	-0.165821	-0.083097	0.083794	-0.963654	-0.068785	0.238975	-0.097629
11103		4.359519	1.106382	8.657380	-0.179243	-0.098554	0.089136	-0.963541	-0.067871	0.239606	-0.097829
11104		4.322974	1.135261	8.668242	-0.197343	-0.110868	0.093524	-0.963417	-0.066871	0.240307	-0.098025
11105		4.325092	1.107436	8.741712	-0.217240	-0.132311	0.096189	-0.963270	-0.065783	0.241122	-0.098201
11106		4.407279	0.984988	8.715723	-0.239437	-0.143271	0.105646	-0.963111	-0.064582	0.242003	-0.098392
11107		4.374843	1.008214	8.725437	-0.250398	-0.153916	0.104773	-0.962940	-0.063335	0.242941	-0.098562
11108		4.334788	1.024021	8.811272	-0.263952	-0.175542	0.109820	-0.962742	-0.062028	0.243991	-0.098731
11109		4.321863	1.061693	8.893750	-0.285164	-0.200198	0.115503	-0.962515	-0.060624	0.245172	-0.098893
11110		4.269363	1.094704	9.009487	-0.315840	-0.235465	0.120127	-0.962248	-0.059086	0.246538	-0.099025
11111		4.231297	1.119469	9.171959	-0.343821	-0.279892	0.122471	-0.961929	-0.057432	0.248131	-0.099118
11112		4.177829	1.065260	9.354861	-0.380407	-0.342372	0.118648	-0.961540	-0.055639	0.250039	-0.099124
11113		4.078649	1.048150	9.627126	-0.424982	-0.433318	0.101860	-0.961051	-0.053697	0.252398	-0.098960
11114		4.094611	1.007781	9.795653	-0.457996	-0.565169	0.098400	-0.960397	-0.051669	0.255401	-0.098688
11115		4.036617	1.086300	9.994067	-0.467005	-0.722820	0.107487	-0.959524	-0.049668	0.259164	-0.098387
11116		4.058585	1.303227	10.216657	-0.474445	-0.907982	0.134467	-0.958381	-0.047694	0.263819	-0.098137
11117		4.021912	1.349866	10.407987	-0.495163	-1.126352	0.171452	-0.956905	-0.045686	0.269536	-0.097959
11118		4.000085	1.759182	10.800521	-0.533746	-1.368055	0.205792	-0.955053	-0.043574	0.276422	-0.097807
11119		4.106372	1.945376	11.059535	-0.639297	-1.644440	0.254260	-0.952753	-0.041034	0.284679	-0.097650
11120		4.157058	2.427908	11.389090	-0.776857	-1.932169	0.322115	-0.949949	-0.037891	0.294362	-0.097529
11121		4.283958	2.533194	11.576254	-0.940612	-2.230959	0.396728	-0.946574	-0.034013	0.305530	-0.097431
11122		4.231913	2.610804	11.705108	-1.113605	-2.510375	0.493795	-0.942589	-0.029314	0.318073	-0.097443
11123		4.135519	2.726258	11.939099	-1.300762	-2.806194	0.624248	-0.937884	-0.023679	0.332068	-0.097690
11124		4.046816	2.380660	11.952505	-1.497127	-3.158847	0.802733	-0.932258	-0.017013	0.347753	-0.098352
11125		3.818156	1.526450	11.989221	-1.627215	-3.549458	1.026534	-0.925506	-0.009572	0.365239	-0.099734
11126		4.290378	1.831528	12.114970	-1.713578	-3.967934	1.252650	-0.917461	-0.001535	0.384553	-0.101891
11127		5.035429	2.776590	12.226849	-1.828960	-4.342661	1.496566	-0.908042	0.007256	0.405474	-0.104870
11128		6.080441	3.340736	12.383585	-1.952858	-4.696229	1.791085	-0.897134	0.017017	0.427803	-0.108838
11129		7.306465	4.141457	12.415354	-2.053544	-4.930604	2.064310	-0.884855	0.027605	0.450919	-0.113759
11130		9.399407	6.215226	12.474833	-2.434144	-5.008724	2.285174	-0.871461	0.040354	0.474167	-0.118715
11131		11.254356	8.719043	12.430888	-2.995449	-4.955812	2.484313	-0.857099	0.055963	0.497074	-0.123157
11132		12.847924	10.367791	11.095045	-3.841945	-4.680126	2.762009	-0.842099	0.076084	0.518714	-0.126554
11133		13.424336	10.738556	8.586432	-5.219963	-4.185064	2.864490	-0.826729	0.102506	0.538494	-0.126630
11134		20.725198	7.036459	6.685957	-6.654185	-3.383496	1.456700	-0.812596	0.131643	0.555678	-0.116532
11135		22.432529	6.271747	9.178129	-6.474387	-1.583115	-1.379830	-0.804301	0.153380	0.566323	-0.094094
11136		16.965193	8.443812	10.161679	-6.218042	-0.276890	-3.215890	-0.799911	0.169511	0.572125	-0.063883
11137		11.109889	8.651103	7.087853	-6.247650	0.542014	-4.165267	-0.797118	0.183223	0.574620	-0.029047
11138		5.244565	8.605330	5.163793	-6.498695	0.753369	-4.362265	-0.793579	0.197144	0.575596	0.007519
11139		2.366693	5.345145	3.655338	-6.568461	0.600904	-4.105625	-0.788299	0.211786	0.576086	0.043089
11140		0.838357	1.361603	3.035926	-6.121560	0.351041	-3.740092	-0.781746	0.225397	0.576495	0.075647
11141		0.381253	-0.625094	3.207660	-5.307824	0.163414	-3.427436	-0.774752	0.236506	0.577002	0.104372
11142		0.458356	-0.932710	3.939119	-4.269593	0.060397	-3.093946	-0.768200	0.244320	0.577601	0.128662
11143		1.368054	0.840153	5.188579	-3.315192	0.094336	-2.773534	-0.762625	0.249203	0.578027	0.148947
11144		2.779500	3.275508	6.302256	-2.694575	0.291111	-2.457606	-0.758325	0.252339	0.577555	0.166429
11145		3.923966	5.427373	7.195317	-2.390852	0.672556	-2.168997	-0.755487	0.254788	0.575399	0.182316
11146		4.615118	7.087896	7.689972	-2.349760	1.188899	-1.937546	-0.754217	0.257211	0.570863	0.197773
11147		4.647308	8.231086	7.681064	-2.480432	1.743171	-1.773689	-0.754289	0.260035	0.563759	0.213554
11148		4.200568	8.390881	7.199556	-2.699683	2.261241	-1.686778	-0.755408	0.263302	0.554121	0.230176
11149		3.640731	7.365576	6.513302	-2.803749	2.692201	-1.671699	-0.757276	0.266460	0.542501	0.247436
11150		3.011372	6.119182	5.810312	-2.693035	3.037041	-1.734405	-0.759834	0.268466	0.529496	0.264975
11151		2.412391	5.200964	5.299868	-2.387795	3.287771	-1.854666	-0.762914	0.268569	0.515860	0.282351
11152		2.081327	4.963060	5.015148	-1.973103	3.450016	-2.014279	-0.766394	0.266281	0.502099	0.299383
11153		2.226270	5.327294	4.983918	-1.572719	3.549214	-2.164013	-0.770029	0.261831	0.488530	0.315972
11154		2.632949	5.969557	5.120986	-1.274530	3.631551	-2.295194	-0.773693	0.255614	0.474995	0.332326
11155		3.093740	6.382766	5.319532	-1.079046	3.705076	-2.400979	-0.777188	0.248172	0.461420	0.348541
11156		3.755694	6.346719	5.701078	-0.939139	3.780456	-2.501390	-0.780476	0.239657	0.447627	0.364762
11157		4.408926	6.158997	6.100413	-0.806782	3.894516	-2.591446	-0.783566	0.230125	0.433519	0.380956
11158		4.946966	5.834582	6.523669	-0.654505	4.022882	-2.675892	-0.786524	0.219399	0.418994	0.397100
11159		5.290082	5.501080	6.945677	-0.470045	4.153070	-2.762759	-0.789285	0.207416	0.404191	0.413082
11160		5.590470	5.180126	7.467435	-0.273735	4.269968	-2.844797	-0.791833	0.194077	0.389105	0.428873
11161		5.866308	4.956723	8.006244	-0.069581	4.356162	-2.930159	-0.794010	0.179489	0.373969	0.444386
11162		6.273458	5.088334	8.591845	0.110270	4.405721	-2.993831	-0.795763	0.163786	0.358780	0.459579
11163		7.048710	5.324643	9.070991	0.225477	4.423800	-3.045436	-0.796935	0.147416	0.343607	0.474443
11164		7.763437	5.282284	9.435264	0.273104	4.394152	-3.084182	-0.797438	0.130706	0.328397	0.489044
11165		8.638663	4.647634	9.472815	0.313474	4.301400	-3.130723	-0.797110	0.113934	0.313491	0.503346
11166		9.359115	4.171753	8.950874	0.373681	4.092181	-3.174567	-0.795826	0.097244	0.299329	0.517307
11167		10.378473	4.207116	8.285452	0.369784	3.624452	-3.180146	-0.793284	0.081741	0.286883	0.530770
11168		12.604308	4.645910	7.778341	0.275386	2.876450	-3.086993	-0.789432	0.068618	0.276937	0.543503
11169		16.627539	4.665530	7.121436	0.147649	1.988156	-2.919831	-0.784393	0.058640	0.270062	0.555298
11170		21.667353	3.278123	6.130164	0.088386	1.159941	-2.724928	-0.778498	0.051374	0.266128	0.566107
11171		27.293243	1.808715	3.912096	0.212276	0.606966	-2.565399	-0.772144	0.045418	0.264673	0.575916
11172		32.193476	0.654290	1.717247	0.288810	0.337228	-2.364679	-0.765881	0.040158	0.264382	0.584735
11173		35.647019	-3.325420	-2.283490	0.620284	0.380657	-2.073260	-0.760469	0.033918	0.264878	0.591926
11174		38.193138	-6.320367	-6.163757	1.572976	0.862143	-1.793087	-0.756564	0.022972	0.266291	0.596801
11175		39.221889	-2.500323	-8.804028	2.164943	1.541961	-1.482042	-0.754423	0.008209	0.266881	0.599627
11176		39.110204	8.103524	-9.842030	0.900640	1.978369	-0.694560	-0.755100	-0.002005	0.262048	0.600958
11177		34.732932	9.213083	-16.337789	-2.170279	1.439823	1.117611	-0.760459	0.003452	0.250257	0.599217
11178		14.665918	-5.093817	-20.647091	-3.343466	0.134064	2.988446	-0.769398	0.019629	0.240054	0.591621
11179		6.962389	-5.242693	0.935625	-2.665013	-1.751083	2.933513	-0.775442	0.038634	0.238987	0.583166
11180		5.145538	-3.309513	23.471030	-1.608064	-1.644332	2.429629	-0.780031	0.052593	0.240538	0.575263
11181		4.166423	7.258998	32.029105	-0.645472	-0.350718	1.274905	-0.783058	0.057686	0.239906	0.570909
11182		-2.661735	3.423171	8.303474	-1.311551	0.213859	1.267797	-0.786563	0.063791	0.235145	0.567412
11183		3.075136	-2.953410	5.010697	-0.884092	-1.698464	1.243979	-0.787655	0.073543	0.239105	0.563045
11184		22.791833	-0.433865	18.605213	-0.441509	-1.220081	0.681334	-0.787853	0.079527	0.242536	0.560482
11185		8.100131	0.059810	7.211201	-0.216970	0.584579	0.282582	-0.789309	0.079128	0.239567	0.559766
11186		1.383393	1.955437	9.169786	-0.206423	-0.164716	0.268568	-0.789774	0.080748	0.239599	0.558865
11187		4.182648	0.428116	8.465968	-0.174304	-0.168307	0.337162	-0.790434	0.082330	0.239709	0.557652
11188		7.705365	2.912437	8.326860	-0.124500	-0.109150	0.298912	-0.791078	0.083508	0.239739	0.556550
11189		6.418128	4.686860	8.787539	-0.308383	0.137662	0.258998	-0.791853	0.084684	0.238283	0.555894
11190		4.543249	2.399406	8.540439	-0.450307	0.154090	0.298435	-0.792697	0.086430	0.236360	0.555243
11191		4.829839	1.123095	8.582799	-0.434447	0.114398	0.294154	-0.793481	0.088213	0.234633	0.554575
11192		4.891718	0.464006	9.019568	-0.330990	0.114901	0.239851	-0.794152	0.089520	0.233211	0.554004
11193		4.307305	-0.030688	9.452405	-0.238673	0.040190	0.187433	-0.794623	0.090600	0.232353	0.553514
11194		4.374631	0.112525	9.290235	-0.128308	-0.030786	0.136532	-0.794910	0.091377	0.232105	0.553078
11195		4.716666	0.299758	9.186474	-0.034255	-0.084361	0.075151	-0.795002	0.091850	0.232345	0.552766
11196		4.716653	0.763024	8.958207	0.025287	-0.105827	0.037198	-0.794988	0.092104	0.232853	0.552531
11197		4.720665	1.000746	8.796835	0.047092	-0.114745	0.012463	-0.794905	0.092262	0.233459	0.552369
11198		4.608441	1.161548	8.790502	0.065996	-0.118059	-0.005548	-0.794775	0.092336	0.234141	0.552255
11199		4.677366	1.485352	8.691260	0.076590	-0.120099	-0.010902	-0.794632	0.092364	0.234858	0.552150
11200		4.649054	1.580629	8.609675	0.066926	-0.112840	-0.018465	-0.794473	0.092405	0.235526	0.552088
11201		4.711564	1.700876	8.560461	0.044934	-0.102521	-0.015829	-0.794325	0.092505	0.236086	0.552045
11202		4.707341	1.633754	8.517996	0.028532	-0.089749	-0.007471	-0.794208	0.092649	0.236552	0.551990
11203		4.634175	1.350808	8.569463	0.003991	-0.077676	-0.009710	-0.794090	0.092852	0.236898	0.551977
11204		4.540947	1.151068	8.532083	0.002342	-0.071551	-0.013353	-0.793968	0.093043	0.237221	0.551982
11205		4.545559	1.227419	8.546288	0.010638	-0.080330	-0.016402	-0.793831	0.093218	0.237599	0.551987
11206		4.564524	1.178130	8.491786	0.015003	-0.073791	-0.019294	-0.793695	0.093358	0.237967	0.552000
11207		4.506597	1.145610	8.495974	0.021102	-0.072024	-0.022228	-0.793557	0.093462	0.238342	0.552019
11208		4.581716	1.287583	8.381268	0.031510	-0.076772	-0.020279	-0.793421	0.093543	0.238768	0.552016
11209		4.450211	1.323607	8.392315	0.022087	-0.075116	-0.011264	-0.793309	0.093665	0.239155	0.551989
11210		4.461530	1.326199	8.354418	0.026055	-0.078241	-0.005130	-0.793211	0.093790	0.239566	0.551931
11211		4.459721	1.355810	8.332195	0.013292	-0.077379	0.004432	-0.793135	0.093972	0.239932	0.551851
11212		4.446608	1.561859	8.326875	-0.000993	-0.081585	0.024925	-0.793102	0.094249	0.240272	0.551702
11213		4.429667	1.666303	8.303349	-0.030979	-0.076051	0.046528	-0.793124	0.094655	0.240496	0.551504
11214		4.441146	1.758580	8.319483	-0.063594	-0.073873	0.071694	-0.793202	0.095217	0.240616	0.551243
11215		4.244833	1.572554	8.304584	-0.095132	-0.081402	0.103405	-0.793343	0.095961	0.240665	0.550889
11216		4.234997	1.666586	8.248337	-0.114596	-0.094746	0.132087	-0.793536	0.096857	0.240706	0.550436
11217		4.123388	1.576060	8.349627	-0.117617	-0.127943	0.172203	-0.793795	0.097900	0.240854	0.549813
11218		4.039356	1.468937	8.644322	-0.126936	-0.175176	0.208683	-0.794086	0.099156	0.241153	0.549035
11219		4.441184	1.020797	8.720242	-0.128145	-0.233222	0.218551	-0.794329	0.100584	0.241673	0.548196
11220		4.418339	1.181743	8.880351	-0.100833	-0.263494	0.225120	-0.794560	0.101994	0.242389	0.547283
11221		4.357377	1.288292	8.841169	-0.093604	-0.311294	0.236256	-0.794762	0.103516	0.243306	0.546297
11222		4.710924	1.336035	8.852083	-0.086589	-0.360553	0.250778	-0.794938	0.105163	0.244435	0.545221
11223		4.511082	1.274842	8.909936	-0.076754	-0.389175	0.259611	-0.795103	0.106856	0.245697	0.544083
11224		4.512414	1.213269	8.973327	-0.051652	-0.451307	0.274651	-0.795234	0.108635	0.247271	0.542824
11225		4.443176	1.274929	9.060650	-0.011077	-0.533493	0.298434	-0.795337	0.110500	0.249268	0.541382
11226		4.432483	1.192362	9.321198	0.033983	-0.640789	0.321228	-0.795373	0.112501	0.251806	0.539740
11227		4.363841	0.983092	9.567307	0.108062	-0.772213	0.346991	-0.795331	0.114586	0.255051	0.537836
11228		4.486478	0.794742	9.512490	0.206294	-0.933237	0.357795	-0.795136	0.116719	0.259195	0.535680
11229		4.814332	0.580294	9.637134	0.317673	-1.116867	0.350103	-0.794707	0.118878	0.264363	0.533312
11230		4.561383	0.722598	10.016321	0.412111	-1.344934	0.320557	-0.793899	0.121218	0.270696	0.530805
11231		4.607909	1.112418	10.162241	0.496368	-1.638847	0.284391	-0.792577	0.123935	0.278422	0.528150
11232		4.606015	1.537617	10.441710	0.546232	-1.979840	0.276451	-0.790694	0.127320	0.287615	0.525234
11233		4.828230	1.943615	10.740751	0.556974	-2.350803	0.299492	-0.788218	0.131640	0.298258	0.521944
11234		4.580748	3.027431	11.436753	0.491188	-2.742704	0.402580	-0.785221	0.137361	0.310174	0.518027
11235		4.596891	3.513821	12.081344	0.315129	-3.207825	0.554206	-0.781565	0.145168	0.323307	0.513376
11236		3.944403	5.106217	12.665008	-0.032539	-3.689472	0.794099	-0.777225	0.155901	0.337190	0.507857
11237		3.599074	5.540836	12.689329	-0.424667	-4.215813	1.157820	-0.772261	0.170032	0.351751	0.500973
11238		2.679530	6.378188	13.380564	-0.787743	-4.822623	1.609149	-0.766571	0.187763	0.367223	0.492200
11239		2.153965	6.651839	14.017825	-1.354360	-5.597375	2.153676	-0.759607	0.210405	0.383544	0.481271
11240		2.187531	5.354203	13.002034	-1.692161	-6.495685	2.705368	-0.750978	0.237271	0.401532	0.467446
11241		6.797899	6.270814	15.280858	-1.690646	-7.378163	3.132645	-0.740391	0.266659	0.421810	0.450323
11242		8.299397	5.376811	16.011816	-1.993123	-7.922197	3.610741	-0.727937	0.298879	0.442071	0.430526
11243		11.070788	3.504563	17.492837	-1.817945	-8.369341	3.774612	-0.713547	0.331139	0.463210	0.408209
11244		12.505127	2.617475	17.547828	-1.445845	-8.516310	3.586973	-0.697481	0.361178	0.484913	0.384618
11245		14.956182	2.493674	16.724525	-1.212253	-8.383069	3.350661	-0.680218	0.388819	0.505974	0.360714
11246		17.663998	5.854702	16.424754	-0.967633	-7.790715	3.155053	-0.663295	0.413327	0.524814	0.337301
11247		15.317175	8.887602	15.778381	-0.954936	-6.896241	3.066306	-0.647549	0.435456	0.540000	0.315371
11248		17.353026	16.140580	16.810598	-1.615713	-6.156210	3.325272	-0.631932	0.458712	0.550404	0.295467
11249		29.160918	17.639973	15.655100	-3.729397	-4.315598	2.241714	-0.614362	0.482676	0.553472	0.288534
11250		26.771780	20.428461	22.372493	-4.877039	-0.711678	0.193576	-0.600799	0.499209	0.547874	0.299440
11251		12.158780	12.183441	17.720155	-6.079781	1.714426	-0.771676	-0.589077	0.512920	0.534881	0.322186
11252		-1.413676	4.092350	12.497808	-5.942922	2.718937	-1.417042	-0.578802	0.522366	0.520105	0.348730
11253		-8.585326	-0.399949	7.990217	-5.056562	2.585329	-1.719625	-0.569346	0.528166	0.507556	0.373193
11254		-10.690430	-4.709444	5.364266	-3.670293	2.121448	-1.822210	-0.561748	0.530135	0.498882	0.393080
11255		-8.813126	-4.872154	5.532617	-1.949237	1.789918	-1.823336	-0.557570	0.527665	0.494431	0.407705
11256		-5.732266	-0.545677	6.620825	-0.759745	1.760173	-1.645103	-0.556688	0.522191	0.491960	0.418796
11257		-1.749331	2.989625	7.883651	-0.290447	2.035690	-1.329756	-0.558250	0.515567	0.488858	0.428446
11258		1.995784	4.386301	8.941404	-0.205583	2.686431	-1.056197	-0.562160	0.507889	0.483297	0.438691
11259		4.108937	4.845187	9.041785	-0.244144	3.601015	-0.919078	-0.568346	0.498598	0.474579	0.450731
11260		4.130620	4.874050	8.418523	-0.291541	4.489235	-0.918343	-0.576353	0.487236	0.462942	0.464869
11261		3.039753	4.406810	7.149985	-0.284649	5.131542	-0.996910	-0.585342	0.473961	0.449362	0.480426
11262		2.415819	4.089042	6.114284	-0.177480	5.495019	-1.124026	-0.594713	0.458834	0.434889	0.496648
11263		2.245334	4.095546	5.465534	-0.064681	5.640422	-1.263516	-0.603811	0.442384	0.420239	0.512940
11264		2.843395	4.109802	5.190108	0.059159	5.655276	-1.374792	-0.612446	0.424861	0.405716	0.528959
11265		3.830195	4.168792	5.473592	0.187944	5.621794	-1.447409	-0.620545	0.406570	0.391475	0.544400
11266		4.967658	4.316104	6.239356	0.322216	5.594725	-1.512502	-0.628182	0.387407	0.377452	0.559314
11267		6.053234	4.457722	7.248489	0.429063	5.609860	-1.583774	-0.635298	0.367453	0.363524	0.573781
11268		6.932425	4.498901	8.201337	0.530935	5.649254	-1.657769	-0.641933	0.346551	0.349545	0.587914
11269		7.812411	4.323874	9.081390	0.654625	5.693795	-1.738633	-0.648033	0.324728	0.335641	0.601623
11270		8.794605	4.361513	9.824279	0.806511	5.748393	-1.839890	-0.653593	0.301718	0.321831	0.614986
11271		9.668964	4.853735	10.852448	0.925205	5.804077	-1.990784	-0.658324	0.277678	0.308143	0.628134
11272		10.264098	5.439628	12.030343	0.941701	5.819009	-2.174182	-0.661902	0.252916	0.294354	0.641307
11273		11.261169	5.929841	13.198927	0.955490	5.774590	-2.375647	-0.664116	0.227758	0.280730	0.654421
11274		12.847877	6.685883	14.137389	0.910897	5.646189	-2.608146	-0.664686	0.202542	0.267309	0.667619
11275		14.240290	6.215294	14.123498	0.834835	5.332400	-2.838915	-0.663326	0.178172	0.254665	0.680735
11276		16.743345	4.221556	13.597965	0.908936	4.800386	-3.086340	-0.659890	0.154802	0.243977	0.693582
11277		20.527843	2.872317	12.759604	1.166464	4.070275	-3.415158	-0.654030	0.132620	0.236659	0.706151
11278		26.732659	4.320130	11.492336	1.388713	3.277082	-3.657580	-0.645996	0.112034	0.232663	0.718336
11279		33.219692	5.143780	9.688652	1.255719	2.583129	-3.704440	-0.636469	0.094292	0.230351	0.730038
11280		40.580598	2.313033	5.861164	0.994126	2.202974	-3.610300	-0.626378	0.078773	0.228118	0.741221
11281		47.292884	-5.233964	0.121133	0.966448	2.242432	-3.712110	-0.615649	0.063092	0.225603	0.752395
11282		57.223629	-11.872289	-11.572370	1.225658	3.126726	-3.910463	-0.604968	0.043002	0.221225	0.763691
11283		59.571131	-8.877611	-21.933853	1.616046	4.645696	-3.626328	-0.596766	0.016298	0.213558	0.773303
11284		51.742601	-4.339627	-26.246679	1.196705	5.473210	-2.456864	-0.593448	-0.011046	0.201657	0.779123
11285		34.419682	-2.411533	-24.954786	0.383497	5.037229	-0.698142	-0.596075	-0.032397	0.188049	0.779925
11286		16.120818	-2.128204	-21.513124	-0.375317	3.121555	1.125293	-0.603673	-0.042222	0.177640	0.776041
11287		4.731558	-0.823286	-13.705757	-1.063805	0.565722	2.373645	-0.613618	-0.038927	0.172630	0.769517
11288		-29.712930	8.687585	19.024054	-2.039213	-1.906745	2.733062	-0.622645	-0.022817	0.171527	0.763132
11289		-0.616556	6.316199	22.968369	-1.462291	-3.089627	2.322965	-0.628642	-0.004395	0.176110	0.757479
11290		-0.547393	-4.251647	0.207684	-1.006166	-2.072807	1.126855	-0.630903	0.007657	0.179004	0.754891
11291		2.222117	4.912071	-0.588625	-1.007068	-3.971319	1.056884	-0.630836	0.026764	0.187804	0.752370
11292		1.040417	1.081658	11.539296	-0.976157	-4.817797	1.164704	-0.629956	0.049032	0.199303	0.749019
11293		16.807121	9.870324	16.512987	-1.376478	-4.871304	1.810901	-0.630920	0.073400	0.209247	0.743484
11294		37.599816	0.439070	19.083640	-3.095127	-3.433926	2.933012	-0.636660	0.099084	0.207849	0.735966
11295		19.302191	0.284569	16.459890	-1.641717	-1.017067	1.363033	-0.639741	0.109541	0.204553	0.732728
11296		5.463492	-5.826449	13.430249	-1.307636	-1.205758	0.764146	-0.640516	0.118977	0.203336	0.730916
11297		13.777681	-5.223390	14.484685	-0.756629	-0.876195	0.503351	-0.640965	0.125145	0.203162	0.729540
11298		2.824781	-0.864418	9.521526	-0.235900	-0.097534	0.249573	-0.641633	0.126564	0.202527	0.728884
11299		6.067854	1.024210	9.969960	-0.235802	-0.383166	0.150374	-0.641627	0.128892	0.202843	0.728393
11300		5.711835	0.906855	8.921047	-0.098076	-0.220590	0.064444	-0.641564	0.130117	0.203198	0.728131
11301		4.474007	1.532252	8.989137	-0.103998	-0.172879	0.041088	-0.641469	0.131144	0.203372	0.727983
11302		4.971993	0.271523	9.033034	-0.025701	-0.173829	0.003770	-0.641280	0.131902	0.203873	0.727872
11303		4.675944	1.212775	8.828847	0.051190	-0.152953	-0.032301	-0.641033	0.132279	0.204587	0.727821
11304		4.182561	1.495839	8.867157	0.066385	-0.164773	-0.033393	-0.640775	0.132669	0.205413	0.727744
11305		4.558401	1.543148	8.870421	0.062132	-0.174821	-0.045424	-0.640461	0.133075	0.206245	0.727711
11306		4.464761	1.538546	8.727739	0.062249	-0.175448	-0.039041	-0.640167	0.133511	0.207093	0.727649
11307		4.396051	2.086662	8.643770	0.054408	-0.163379	-0.030541	-0.639914	0.133916	0.207851	0.727581
11308		4.425014	1.837451	8.534648	0.004960	-0.147084	-0.016409	-0.639698	0.134458	0.208387	0.727519
11309		4.326595	1.716441	8.419744	-0.011091	-0.147633	-0.009635	-0.639497	0.135039	0.208844	0.727456
11310		4.269072	2.135496	8.414944	-0.057138	-0.154780	0.011095	-0.639332	0.135838	0.209163	0.727361
11311		4.374019	1.832296	8.531874	-0.093191	-0.157957	0.028852	-0.639207	0.136762	0.209332	0.727249
11312		4.443124	1.552980	8.617829	-0.101921	-0.171184	0.031817	-0.639069	0.137785	0.209529	0.727121
11313		4.527073	1.462879	8.575240	-0.098388	-0.166856	0.027367	-0.638924	0.138756	0.209708	0.727011
11314		4.475052	1.450714	8.530330	-0.102014	-0.165406	0.030701	-0.638787	0.139757	0.209886	0.726889
11315		4.519840	1.477926	8.500279	-0.112340	-0.150818	0.033510	-0.638672	0.140722	0.209960	0.726782
11316		4.572625	1.467132	8.425592	-0.112749	-0.125421	0.035613	-0.638590	0.141618	0.209967	0.726678
11317		4.512881	1.426813	8.483207	-0.111979	-0.109175	0.037459	-0.638536	0.142435	0.209905	0.726584
11318		4.550136	1.335093	8.512894	-0.111903	-0.092844	0.037513	-0.638497	0.143213	0.209810	0.726492
11319		4.440773	1.509574	8.503785	-0.108303	-0.082253	0.041629	-0.638491	0.143926	0.209673	0.726397
11320		4.424070	1.646889	8.506001	-0.103895	-0.080517	0.053789	-0.638530	0.144651	0.209557	0.726252
11321		4.328471	1.800201	8.583124	-0.120654	-0.062109	0.068655	-0.638635	0.145360	0.209294	0.726094
11322		4.373143	1.768448	8.578989	-0.124558	-0.055572	0.091369	-0.638823	0.146102	0.209001	0.725864
11323		4.358224	1.608560	8.716714	-0.121503	-0.071627	0.127096	-0.639127	0.146911	0.208730	0.725511
11324		4.359556	1.306500	8.724090	-0.094029	-0.094011	0.154043	-0.639517	0.147762	0.208633	0.725021
11325		4.545598	1.144253	8.809300	-0.076150	-0.129440	0.157471	-0.639895	0.148666	0.208695	0.724485
11326		4.263545	0.757925	9.137026	-0.011450	-0.203092	0.150390	-0.640204	0.149639	0.209250	0.723852
11327		4.286022	0.501949	9.198975	0.038715	-0.300914	0.118544	-0.640325	0.150747	0.210303	0.723210
11328		4.390521	0.874704	9.092024	0.093435	-0.392962	0.091734	-0.640276	0.152000	0.211884	0.722529
11329		4.175876	0.991197	9.259403	0.114210	-0.486082	0.074054	-0.640072	0.153480	0.213833	0.721822
11330		4.265316	1.055862	9.340334	0.174861	-0.598001	0.071231	-0.639762	0.155181	0.216378	0.720974
11331		4.298601	0.902109	9.352327	0.234058	-0.723310	0.054671	-0.639285	0.157101	0.219531	0.720028
11332		4.205575	0.936804	9.551152	0.310093	-0.875202	0.036751	-0.638604	0.159315	0.223470	0.718933
11333		4.336347	1.086724	9.377125	0.387537	-1.054884	0.017022	-0.637680	0.161874	0.228257	0.717677
11334		4.229119	1.017427	9.601783	0.449424	-1.257694	0.004863	-0.636482	0.164957	0.233931	0.716209
11335		4.178884	0.883530	9.925131	0.530417	-1.521959	-0.015894	-0.634909	0.168665	0.240729	0.714488
11336		4.472124	0.821834	10.095420	0.675383	-1.846435	-0.038868	-0.632895	0.173037	0.249092	0.712359
11337		4.272047	0.875172	10.342992	0.711255	-2.211331	-0.032057	-0.630378	0.178553	0.258698	0.709802
11338		4.118132	1.103454	10.610319	0.692689	-2.609127	-0.000753	-0.627303	0.185558	0.269446	0.706723
11339		3.932565	2.100412	11.097680	0.661885	-3.055710	0.041734	-0.623579	0.194225	0.281390	0.703026
11340		4.089814	3.307169	11.333067	0.497309	-3.560495	0.125719	-0.619064	0.205248	0.294198	0.698628
11341		4.083195	3.843363	11.592054	0.245288	-4.088973	0.271689	-0.613759	0.219010	0.307517	0.693374
11342		3.224335	4.101482	12.114384	0.175655	-4.709968	0.536022	-0.607979	0.235438	0.322116	0.686420
11343		2.808397	5.084124	12.803533	0.079488	-5.471164	0.892893	-0.601615	0.255161	0.338117	0.677222
11344		2.980727	4.874842	12.767195	-0.198828	-6.209998	1.300032	-0.594431	0.278683	0.354651	0.665741
11345		3.564042	3.667594	14.468990	-0.240800	-6.875194	1.535332	-0.586068	0.304617	0.372336	0.651996
11346		4.559875	5.229011	15.415553	-0.365879	-7.779226	1.774899	-0.575707	0.333850	0.391428	0.635523
11347		7.251570	7.432206	16.703927	-0.612634	-8.623851	2.084734	-0.563178	0.366458	0.411007	0.616127
11348		11.067951	5.357679	16.346029	-0.647913	-9.314054	2.305181	-0.548580	0.400924	0.431188	0.593630
11349		13.652770	6.287675	17.503551	-0.268510	-9.612282	2.410044	-0.533062	0.434483	0.452109	0.568038
11350		16.108559	1.799815	17.044907	-0.326947	-9.699738	2.459681	-0.516033	0.467467	0.471870	0.540854
11351		21.050450	-0.188667	18.893040	0.860675	-8.976558	1.930219	-0.500866	0.493098	0.493070	0.512707
11352		16.144160	6.492510	20.894077	2.291219	-7.650672	1.609245	-0.490765	0.510031	0.514410	0.484149
11353		3.801398	11.705508	21.207514	2.487031	-6.146494	1.779492	-0.484815	0.522663	0.531311	0.457697
11354		9.864399	11.589628	10.238740	0.830066	-6.401463	2.576101	-0.475136	0.541424	0.542338	0.432406
11355		29.477253	27.306381	23.771736	-0.447674	-4.771594	1.755235	-0.464336	0.557139	0.548231	0.416451
11356		24.142231	21.220082	22.705945	-3.448938	-0.431670	1.131275	-0.455890	0.569162	0.538789	0.421811
11357		11.379624	11.468686	19.840185	-4.729684	2.430974	0.549561	-0.450232	0.576470	0.521207	0.439678
11358		-2.041816	1.667921	14.948713	-4.561636	3.983791	0.205083	-0.448090	0.578649	0.500921	0.462017
11359		-8.706384	-1.789788	11.208482	-3.471577	4.143680	0.073816	-0.448780	0.577232	0.482799	0.481979
11360		-9.313880	-3.356817	7.763543	-2.225955	3.977432	0.017361	-0.452225	0.572808	0.467949	0.498405
11361		-8.186122	-2.621044	5.833658	-1.014231	3.837947	-0.121156	-0.458181	0.565414	0.456687	0.511679
11362		-5.908662	-0.722421	5.696327	-0.124721	3.803249	-0.260606	-0.466042	0.555438	0.447998	0.523060
11363		-3.192102	2.089559	6.156064	0.399002	3.947734	-0.385982	-0.475132	0.543423	0.440549	0.533720
11364		-0.512719	5.698841	6.639716	0.460862	4.283911	-0.432455	-0.484856	0.529972	0.432346	0.545089
11365		1.732121	7.931537	6.981459	0.099634	4.724870	-0.423795	-0.494359	0.516045	0.421835	0.557999
11366		3.090770	7.739004	6.983234	-0.379964	5.167522	-0.399101	-0.503403	0.501760	0.408492	0.572675
11367		4.027580	6.046035	6.817515	-0.621539	5.544114	-0.418079	-0.512194	0.486706	0.393260	0.588321
11368		4.758276	4.173428	6.518949	-0.531485	5.819769	-0.509931	-0.521104	0.469949	0.377430	0.604273
11369		5.357932	2.817974	6.470709	-0.163962	6.001356	-0.677199	-0.530221	0.451035	0.362315	0.619808
11370		5.874060	2.243966	6.618833	0.366168	6.114013	-0.896345	-0.539577	0.429434	0.348650	0.634733
11371		6.441802	2.795071	7.059154	0.881126	6.188635	-1.134615	-0.548839	0.405448	0.336609	0.648909
11372		6.898400	3.862382	7.839468	1.235128	6.213289	-1.321181	-0.557702	0.379561	0.325629	0.662471
11373		7.944249	4.704465	8.840513	1.432853	6.206197	-1.466257	-0.565825	0.352603	0.315283	0.675359
11374		9.299987	5.201884	9.870575	1.535143	6.218969	-1.622607	-0.573028	0.324565	0.305124	0.687893
11375		10.285137	5.540134	11.119003	1.541043	6.226692	-1.825220	-0.578907	0.295920	0.294972	0.700207
11376		11.123306	5.647291	12.499001	1.510572	6.209579	-2.055489	-0.583279	0.266625	0.284704	0.712489
11377		13.010547	6.341172	13.968095	1.532942	6.155871	-2.302188	-0.586050	0.236908	0.274691	0.724545
11378		16.491392	8.342518	15.039918	1.519327	6.095383	-2.580995	-0.587047	0.206658	0.264746	0.736599
11379		19.911597	9.142207	15.263346	1.197943	6.038861	-2.840100	-0.586018	0.177095	0.253752	0.748886
11380		20.725012	4.068326	13.647256	0.998323	5.748175	-3.128016	-0.582698	0.148497	0.242759	0.761236
11381		21.779920	2.348893	12.371144	1.326546	5.037169	-3.477814	-0.576745	0.121150	0.235103	0.772926
11382		24.978229	1.892023	11.276701	1.381148	3.938004	-3.609130	-0.568415	0.097476	0.230661	0.783708
11383		30.673469	-2.371620	8.088004	1.412412	2.751962	-3.668172	-0.558013	0.078307	0.229629	0.793574
11384		39.784021	-2.998176	3.936554	1.492254	2.032035	-3.804314	-0.545890	0.061445	0.230803	0.803093
11385		52.778954	-4.282783	-3.089724	1.005386	2.046516	-3.787437	-0.533465	0.045950	0.229895	0.812682
11386		69.098118	-6.108305	-18.184305	0.194447	3.471169	-3.529593	-0.523420	0.027107	0.221713	0.822277
11387		64.802491	-8.255241	-28.424266	-0.362782	5.411375	-2.597621	-0.519096	0.002942	0.206000	0.829515
11388		43.387126	-10.753615	-28.664745	-0.277348	5.460642	-1.147574	-0.520360	-0.020076	0.190517	0.832182
11389		24.608544	-3.983885	-22.556566	-0.001246	3.163715	0.212932	-0.524519	-0.032917	0.182337	0.830993
11390		-31.955328	4.120295	-28.378923	-2.256841	-0.430736	2.685122	-0.535608	-0.022520	0.174898	0.825849
11391		-17.871763	2.599678	9.419522	-1.835369	-6.942353	3.440373	-0.542865	0.014186	0.186579	0.818709
11392		14.218701	-2.703573	19.189967	-0.669747	-6.473600	1.527957	-0.542097	0.043893	0.201431	0.814635
11393		25.794910	9.855089	3.946097	-0.909229	-4.279316	0.536436	-0.539270	0.064280	0.209254	0.813184
11394		8.809116	9.524183	15.144406	-2.365089	-4.204189	2.149676	-0.541755	0.090262	0.210562	0.808714
11395		26.301392	-3.837021	19.209749	-3.430758	-4.037714	3.461625	-0.549427	0.119650	0.206426	0.800751
11396		29.011874	-1.609475	16.448761	-2.042712	-1.714470	2.316699	-0.554971	0.134848	0.201873	0.795657
11397		12.344188	2.446714	15.124288	-1.914887	-1.040334	1.457626	-0.558380	0.145867	0.196339	0.792708
11398		10.769580	-8.317166	13.976122	-1.407679	-0.442138	0.926563	-0.560022	0.152754	0.191448	0.791447
11399		8.789670	-4.234542	12.122859	-0.515821	-0.315252	0.482844	-0.561237	0.155958	0.189996	0.790311
11400		4.568924	2.145378	8.946175	-0.405398	-0.060219	0.292862	-0.562038	0.157699	0.188421	0.789773
11401		5.487010	-1.978722	10.158766	-0.280590	-0.082737	0.203823	-0.562559	0.159044	0.187424	0.789369
11402		4.934127	1.073597	8.793610	-0.094277	-0.120171	0.100140	-0.562175	0.160130	0.187339	0.789444
11403		5.059856	0.875745	8.807288	-0.080226	-0.063163	0.093097	-0.562427	0.160722	0.187153	0.789188
11404		4.411836	1.370762	8.874098	-0.044833	-0.066240	0.071664	-0.562613	0.161249	0.187167	0.788945
11405		4.867597	0.882960	8.965545	-0.037857	-0.098096	0.051091	-0.562695	0.161816	0.187275	0.788745
11406		4.638057	0.806759	8.848931	0.013376	-0.112868	0.019963	-0.562673	0.162310	0.187686	0.788561
11407		4.559043	1.520000	8.786980	0.020293	-0.136591	0.001415	-0.562563	0.162814	0.188168	0.788421
11408		4.472787	1.446432	8.736849	0.017074	-0.146102	-0.006556	-0.561879	0.163563	0.188669	0.788633
11409		4.578363	1.584066	8.611930	-0.009999	-0.169088	-0.001585	-0.561700	0.164277	0.189124	0.788504
11410		4.670402	1.339796	8.656287	-0.039280	-0.164646	0.000025	-0.561505	0.165103	0.189487	0.788383
11411		4.657833	1.467122	8.645784	-0.047698	-0.141851	0.002246	-0.561339	0.165820	0.189713	0.788296
11412		4.620060	1.506147	8.622356	-0.070672	-0.142404	-0.001437	-0.560620	0.166805	0.189852	0.788567
11413		4.706804	1.473854	8.474225	-0.086036	-0.122732	0.002481	-0.560445	0.167556	0.189871	0.788528
11414		4.667917	1.443239	8.482536	-0.095181	-0.093959	0.003644	-0.559805	0.168416	0.189774	0.788822
11415		4.613597	1.333140	8.536320	-0.103030	-0.076420	0.001064	-0.559659	0.169031	0.189596	0.788837
11416		4.596329	1.074561	8.512208	-0.086685	-0.059985	-0.001815	-0.559067	0.169719	0.189441	0.789146
11417		4.528458	1.067512	8.513656	-0.067002	-0.065271	-0.006938	-0.558929	0.170181	0.189380	0.789159
11418		4.499569	1.064020	8.476682	-0.056762	-0.063069	-0.004036	-0.558350	0.170795	0.189352	0.789443
11419		4.505225	1.210702	8.515050	-0.050499	-0.059901	-0.007377	-0.558228	0.171189	0.189341	0.789446
11420		4.556956	1.325570	8.334487	-0.053693	-0.053728	-0.005492	-0.557678	0.171749	0.189302	0.789723
11421		4.459921	1.531405	8.476991	-0.058873	-0.038514	-0.002899	-0.557589	0.172087	0.189194	0.789738
11422		4.512084	1.783732	8.370693	-0.061920	-0.033020	0.004848	-0.557532	0.172463	0.189090	0.789721
11423		4.258713	1.855961	8.490575	-0.081091	-0.008253	0.038129	-0.557619	0.172786	0.188780	0.789663
11424		4.065329	1.654642	8.779432	-0.073412	-0.012714	0.089763	-0.557510	0.173321	0.188479	0.789695
11425		4.240221	1.467806	9.015433	-0.053924	-0.089069	0.152677	-0.557985	0.173999	0.188418	0.789225
11426		4.037561	1.282508	9.044395	0.060673	-0.170512	0.224524	-0.558348	0.174912	0.188990	0.788630
11427		4.507064	0.933735	8.913163	-0.019356	-0.179753	0.176195	-0.558847	0.175871	0.189302	0.787987
11428		4.178498	0.468395	9.298531	0.039140	-0.296783	0.139371	-0.559125	0.177130	0.190238	0.787282
11429		4.312129	0.489566	9.322171	0.109328	-0.411197	0.112525	-0.559235	0.178569	0.191757	0.786510
11430		4.446189	0.728161	9.292613	0.173363	-0.543327	0.086956	-0.558779	0.180478	0.193920	0.785868
11431		4.507792	0.449546	9.241907	0.226084	-0.636515	0.051983	-0.558502	0.182406	0.196576	0.784960
11432		4.397754	0.705434	9.369135	0.292697	-0.767102	0.020318	-0.558008	0.184663	0.199918	0.783939
11433		4.204281	0.972394	9.667283	0.344271	-0.924023	-0.001257	-0.557292	0.187318	0.203882	0.782796
11434		4.201276	1.309986	9.744980	0.397573	-1.127074	-0.018478	-0.556311	0.190630	0.208667	0.781433
11435		4.218729	1.219260	9.722211	0.431680	-1.353183	-0.018794	-0.555079	0.194674	0.214177	0.779819
11436		4.443351	0.408120	9.525840	0.547804	-1.624895	-0.021902	-0.553284	0.199577	0.220887	0.777981
11437		4.067668	0.537941	10.511312	0.599036	-1.966332	-0.052007	-0.551267	0.205460	0.228757	0.775604
11438		4.187900	0.552082	10.470269	0.668554	-2.380182	-0.081150	-0.548325	0.212829	0.238034	0.772906
11439		4.293214	1.090098	10.903270	0.704001	-2.842398	-0.059210	-0.545105	0.221717	0.248669	0.769328
11440		3.879754	2.703781	11.872192	0.694006	-3.387457	0.063759	-0.541475	0.232850	0.260606	0.764637
11441		3.865937	5.341455	12.869994	0.405702	-3.991507	0.324625	-0.537485	0.247294	0.272697	0.758677
11442		3.412266	6.240214	13.323369	0.068892	-4.635374	0.674816	-0.532997	0.265576	0.284708	0.751216
11443		2.427382	7.552915	14.106633	-0.286879	-5.351997	1.204017	-0.528832	0.287961	0.296500	0.741285
11444		1.210263	7.596536	14.201400	-0.703990	-6.201713	1.843359	-0.524626	0.315312	0.307921	0.728376
11445		3.460991	8.000383	14.706435	-0.885151	-7.065388	2.295462	-0.519737	0.346563	0.319913	0.712337
11446		4.575365	6.602337	16.501094	-1.432836	-7.766318	2.683362	-0.513297	0.381817	0.330679	0.693825
11447		6.170730	4.083103	17.170677	-1.409116	-8.789791	3.016184	-0.505265	0.420319	0.342928	0.671148
11448		9.861071	5.938344	18.970400	-0.988569	-9.502339	3.192687	-0.496199	0.459413	0.357283	0.644263
11449		10.825150	3.900386	18.521594	-0.952998	-10.069168	3.309320	-0.485205	0.499201	0.371960	0.614020
11450		15.265106	3.517728	18.680957	-0.553421	-10.230857	3.104738	-0.472861	0.536669	0.387716	0.581433
11451		18.470047	-1.821327	20.487936	0.402590	-9.334851	2.443250	-0.461699	0.566609	0.404804	0.549474
11452		11.644068	-0.343067	20.791885	1.896760	-8.256216	1.895574	-0.454489	0.587801	0.424140	0.517721
11453		1.365226	10.459995	18.555050	2.661738	-6.937161	2.253033	-0.452525	0.603685	0.440667	0.486414
11454		13.936598	12.994038	10.141970	1.203889	-7.519853	2.862488	-0.445665	0.624661	0.452456	0.454383
11455		34.332779	24.575497	26.872181	0.201161	-4.751441	1.808542	-0.439218	0.638686	0.458232	0.434961
11456		26.815592	19.806516	22.838958	-2.043094	-0.321351	0.504095	-0.433080	0.645010	0.452828	0.437436
11457		11.835476	12.361331	20.085146	-3.235423	2.638309	-0.415842	-0.427864	0.645427	0.440889	0.453843
11458		-1.809118	4.818762	13.975024	-3.418064	4.038770	-1.067365	-0.423520	0.641223	0.427203	0.476405
11459		-7.957773	0.187976	8.895753	-2.846922	4.099426	-1.354246	-0.420130	0.634669	0.415374	0.498147
11460		-9.175806	-3.706386	5.666656	-1.762735	3.849443	-1.513655	-0.418983	0.625607	0.407069	0.517072
11461		-8.489787	-4.311867	4.415425	-0.503185	3.548926	-1.757760	-0.420257	0.613943	0.403305	0.532731
11462		-5.713290	-2.064775	4.670468	0.421946	3.383422	-1.946521	-0.423346	0.600010	0.402783	0.546381
11463		-2.350945	0.936713	5.746377	0.854139	3.416901	-1.978855	-0.427503	0.584858	0.403350	0.559009
11464		1.170194	3.776716	6.820569	0.793228	3.717251	-1.892637	-0.432190	0.568829	0.402630	0.572306
11465		4.105250	5.308382	7.501093	0.356514	4.284935	-1.708513	-0.437126	0.552367	0.398707	0.587234
11466		5.600313	4.707418	7.596349	-0.138499	4.978547	-1.498667	-0.442517	0.534969	0.390911	0.604298
11467		5.751681	2.727838	7.254172	-0.417583	5.584737	-1.320582	-0.448588	0.516468	0.380167	0.622497
11468		5.446716	0.413486	6.776685	-0.342809	6.010245	-1.199368	-0.455685	0.496136	0.368000	0.640919
